iter_global,activityType,raw_data_samp_time[ms],binLineWr_time[ms],iterTime_binlineIdx[ms],distLuna [cm],strengthLuna[Amp],tempLuna[Cdeg],mpuAngle[deg],mpuTotGyro[rad/sec],mpuTotAcc[m/s^2],mpu_gyroX[rad/sec],mpu_gyroY[rad/sec],mpu_GyroZ[rad/sec],mpu_accX[m/s^2],mpu_accY[m/s^2],mpu_accZ[m/s^2],vl1_dist[cm],vl2_dist[cm],vl3_dist[cm],VLAngle[deg],fusedAngle[deg],spincount,bucket10,digit,currentTopDir,currentHammerDir,currentSystemMode,currentTopMode,currentHammerMode
0,5,33573.180,33576.000,33576.000,0,0,0.000,0.200,0.323,9.589,-0.225,0.158,0.170,0.740,0.747,9.531,11.000,73.000,120.000,-57.296,0.200,0,0,0,0,0,0,0,0
1,5,33593.160,33596.000,20.000,0,0,0.000,0.386,0.314,9.518,-0.210,0.173,0.158,0.709,0.493,9.479,9.000,74.000,120.000,-57.296,0.386,0,0,0,0,0,0,0,0
2,5,33613.160,33616.000,20.000,0,0,0.000,0.564,0.300,9.571,-0.184,0.177,0.157,0.699,0.522,9.531,13.000,71.000,120.000,-57.296,0.564,0,0,0,0,0,0,0,0
3,5,33633.148,33636.000,20.000,0,0,0.000,0.564,0.276,9.513,-0.157,0.174,0.145,0.555,0.500,9.483,11.000,73.000,120.000,-57.296,0.564,0,0,0,0,0,0,0,0
4,5,33653.160,33656.000,20.000,0,0,0.000,0.564,0.283,9.740,-0.173,0.186,0.124,0.764,0.761,9.680,15.000,70.000,120.000,-57.296,0.564,0,0,0,0,0,0,0,0
5,5,33673.160,33676.000,20.000,0,0,0.000,0.564,0.327,9.663,-0.210,0.224,0.114,0.718,0.563,9.620,11.000,73.000,120.000,-57.296,0.564,0,0,0,0,0,0,0,0
6,5,33693.160,33696.000,20.000,0,0,0.000,0.564,0.335,9.590,-0.215,0.231,0.112,0.515,0.469,9.565,12.000,69.000,120.000,-57.296,0.564,0,0,0,0,0,0,0,0
7,5,33713.152,33716.000,20.000,0,0,0.000,0.564,0.303,9.494,-0.190,0.201,0.122,0.321,0.232,9.486,12.000,71.000,120.000,-57.296,0.564,0,0,0,0,0,0,0,0
8,5,33733.148,33736.000,20.000,0,0,0.000,0.564,0.253,9.395,-0.142,0.160,0.134,0.275,0.146,9.390,13.000,71.000,120.000,-57.296,0.564,0,0,0,0,0,0,0,0
9,5,33753.164,33756.000,20.000,0,0,0.000,0.564,0.226,9.496,-0.107,0.136,0.145,0.503,0.271,9.479,11.000,71.000,120.000,-57.296,0.564,0,0,0,0,0,0,0,0
10,5,33773.160,33776.000,20.000,0,0,0.000,0.697,0.226,9.576,-0.097,0.139,0.150,0.431,0.285,9.562,10.000,72.000,120.000,-57.296,0.697,0,0,0,0,0,0,0,0
11,5,33793.160,33796.000,20.000,0,0,0.000,0.740,0.202,9.521,-0.069,0.119,0.148,0.136,0.115,9.519,11.000,71.000,120.000,-57.296,0.740,0,0,0,0,0,0,0,0
12,5,33813.160,33816.000,20.000,0,0,0.000,0.827,0.169,9.462,-0.036,0.062,0.152,0.144,0.136,9.459,12.000,70.000,120.000,-57.296,0.827,0,0,0,0,0,0,0,0
13,5,33828.137,33833.000,17.000,0,0,0.000,0.827,0.158,9.605,-0.022,0.049,0.149,0.340,0.235,9.596,12.000,70.000,120.000,-57.296,0.827,0,0,0,0,0,0,0,0
14,5,33853.168,33856.000,23.000,0,0,0.000,0.870,0.149,9.571,-0.003,0.040,0.144,0.397,0.316,9.558,11.000,68.000,120.000,-57.296,0.870,0,0,0,0,0,0,0,0
15,5,33873.160,33876.000,20.000,0,0,0.000,0.914,0.161,9.621,-0.003,0.049,0.153,0.400,0.292,9.608,12.000,68.000,120.000,-57.296,0.914,0,0,0,0,0,0,0,0
16,5,33893.160,33896.000,20.000,0,0,0.000,1.000,0.149,9.534,0.009,0.034,0.145,0.182,0.139,9.531,10.000,69.000,120.000,-57.296,1.000,0,0,0,0,0,0,0,0
17,5,33913.160,33916.000,20.000,0,0,0.000,1.000,0.132,9.577,0.038,0.007,0.126,0.239,0.208,9.572,14.000,70.000,120.000,-57.296,1.000,0,0,0,0,0,0,0,0
18,5,33933.160,33936.000,20.000,0,0,0.000,1.000,0.103,9.667,0.045,0.004,0.093,0.285,0.287,9.658,10.000,69.000,120.000,-57.296,1.000,0,0,0,0,0,0,0,0
19,5,33953.168,33956.000,20.000,0,0,0.000,1.000,0.081,9.619,0.050,0.017,0.062,0.318,0.333,9.608,10.000,66.000,120.000,-57.296,1.000,0,0,0,0,0,0,0,0
20,5,33973.148,33976.000,20.000,0,0,0.000,1.000,0.055,9.627,0.032,0.038,0.024,0.414,0.448,9.608,10.000,66.000,120.000,-57.296,1.000,0,0,0,0,0,0,0,0
21,5,33993.160,33996.000,20.000,0,0,0.000,1.000,0.050,9.637,0.010,0.049,-0.006,0.359,0.405,9.622,10.000,65.000,120.000,-57.296,1.000,0,0,0,0,0,0,0,0
22,5,34013.160,34016.000,20.000,0,0,0.000,1.000,0.067,9.675,0.002,0.065,-0.019,0.407,0.409,9.658,12.000,65.000,120.000,-57.296,1.000,0,0,0,0,0,0,0,0
23,5,34033.152,34036.000,20.000,0,0,0.000,1.000,0.056,9.644,-0.037,0.034,-0.024,0.022,0.481,9.632,12.000,70.000,120.000,-57.296,1.000,0,0,0,0,0,0,0,0
24,5,34053.168,34056.000,20.000,0,0,0.000,1.000,0.061,9.582,-0.040,-0.028,-0.036,0.098,0.218,9.579,9.000,67.000,120.000,-57.296,1.000,0,0,0,0,0,0,0,0
25,5,34073.160,34076.000,20.000,0,0,0.000,1.000,0.073,9.612,-0.027,-0.042,-0.054,0.290,0.278,9.603,10.000,67.000,120.000,-57.296,1.000,0,0,0,0,0,0,0,0
26,5,34093.160,34096.000,20.000,0,0,0.000,1.000,0.101,9.643,-0.031,-0.034,-0.089,0.412,0.316,9.629,10.000,66.000,120.000,-57.296,1.000,0,0,0,0,0,0,0,0
27,5,34113.160,34116.000,20.000,0,0,0.000,1.000,0.131,9.652,-0.027,0.018,-0.127,0.654,0.326,9.625,9.000,67.000,120.000,-57.296,1.000,0,0,0,0,0,0,0,0
28,5,34133.152,34136.000,20.000,0,0,0.000,0.956,0.182,9.688,-0.033,0.089,-0.155,0.575,0.333,9.665,12.000,65.000,120.000,-57.296,0.956,0,0,0,0,0,0,0,0
29,5,34153.168,34156.000,20.000,0,0,0.000,0.758,0.250,9.808,-0.076,0.157,-0.180,0.584,0.438,9.780,10.000,70.000,120.000,-57.296,0.758,0,0,0,0,0,0,0,0
30,5,34173.160,34176.000,20.000,0,0,0.000,0.559,0.247,9.554,-0.081,0.160,-0.169,0.206,0.175,9.550,10.000,71.000,120.000,-57.296,0.559,0,0,0,0,0,0,0,0
31,5,34193.160,34196.000,20.000,0,0,0.000,0.421,0.206,9.576,-0.073,0.130,-0.142,0.196,0.208,9.572,14.000,71.000,120.000,-57.296,0.421,0,0,0,0,0,0,0,0
32,5,34213.152,34216.000,20.000,0,0,0.000,0.421,0.152,9.538,-0.061,0.090,-0.106,0.129,0.108,9.536,13.000,70.000,120.000,-57.296,0.421,0,0,0,0,0,0,0,0
33,5,34233.160,34236.000,20.000,0,0,0.000,0.421,0.108,9.586,-0.046,0.066,-0.072,0.247,0.146,9.582,11.000,71.000,120.000,-57.296,0.421,0,0,0,0,0,0,0,0
34,5,34253.164,34256.000,20.000,0,0,0.000,0.421,0.064,9.555,-0.044,0.037,-0.029,0.172,0.122,9.553,12.000,72.000,120.000,-57.296,0.421,0,0,0,0,0,0,0,0
35,5,34273.164,34276.000,20.000,0,0,0.000,0.421,0.030,9.540,-0.020,0.019,0.013,0.280,-0.057,9.536,11.000,72.000,120.000,-57.296,0.421,0,0,0,0,0,0,0,0
36,5,34293.160,34296.000,20.000,0,0,0.000,0.421,0.059,9.528,0.017,0.009,0.055,0.278,0.041,9.524,12.000,72.000,120.000,-57.296,0.421,0,0,0,0,0,0,0,0
37,5,34313.160,34316.000,20.000,0,0,0.000,0.421,0.104,9.577,0.027,-0.001,0.100,0.304,0.086,9.572,10.000,75.000,120.000,-57.296,0.421,0,0,0,0,0,0,0,0
38,5,34333.160,34336.000,20.000,0,0,0.000,0.421,0.151,9.483,0.052,-0.016,0.141,0.280,-0.096,9.479,13.000,74.000,120.000,-57.296,0.421,0,0,0,0,0,0,0,0
39,5,34353.148,34356.000,20.000,0,0,0.000,0.564,0.202,9.458,0.096,-0.033,0.175,0.237,-0.060,9.455,12.000,72.000,120.000,-57.296,0.564,0,0,0,0,0,0,0,0
40,5,34373.160,34376.000,20.000,0,0,0.000,0.786,0.238,9.590,0.117,-0.051,0.201,0.266,0.230,9.584,13.000,71.000,120.000,-57.296,0.786,0,0,0,0,0,0,0,0
41,5,34393.160,34396.000,20.000,0,0,0.000,1.028,0.249,9.610,0.104,-0.050,0.220,0.306,0.194,9.603,13.000,72.000,120.000,-57.296,1.028,0,0,0,0,0,0,0,0
42,5,34413.160,34416.000,20.000,0,0,0.000,1.281,0.261,9.565,0.127,-0.054,0.221,0.294,0.124,9.560,9.000,69.000,120.000,-57.296,1.281,0,0,0,0,0,0,0,0
43,5,34433.160,34436.000,20.000,0,0,0.000,1.537,0.259,9.681,0.129,-0.036,0.221,0.412,0.376,9.665,12.000,68.000,120.000,-57.296,1.537,0,0,0,0,0,0,0,0
44,5,34453.148,34456.000,20.000,0,0,0.000,1.784,0.241,9.705,0.118,-0.022,0.209,0.280,0.309,9.697,12.000,70.000,120.000,-57.296,1.784,0,0,0,0,0,0,0,0
45,5,34473.168,34476.000,20.000,0,0,0.000,2.008,0.214,9.665,0.102,-0.014,0.187,0.340,0.503,9.646,11.000,68.000,120.000,-57.296,2.008,0,0,0,0,0,0,0,0
46,5,34493.160,34496.000,20.000,0,0,0.000,2.199,0.176,9.665,0.082,-0.009,0.155,0.213,0.467,9.651,13.000,69.000,120.000,-57.296,2.199,0,0,0,0,0,0,0,0
47,5,34513.160,34516.000,20.000,0,0,0.000,2.242,0.139,9.663,0.066,-0.001,0.122,0.237,0.462,9.649,11.000,65.000,120.000,-57.296,2.242,0,0,0,0,0,0,0,0
48,5,34533.152,34536.000,20.000,0,0,0.000,2.242,0.102,9.678,0.056,0.002,0.085,0.333,0.479,9.661,12.000,66.000,120.000,-57.296,2.242,0,0,0,0,0,0,0,0
49,5,34553.148,34556.000,20.000,0,0,0.000,2.242,0.065,9.676,0.028,0.035,0.047,0.426,0.500,9.653,10.000,65.000,120.000,-57.296,2.242,0,0,0,0,0,0,0,0
50,5,34573.148,34576.000,20.000,0,0,0.000,2.242,0.069,9.711,0.018,0.066,0.013,0.338,0.462,9.694,11.000,66.000,120.000,-57.296,2.242,0,0,0,0,0,0,0,0
51,5,34593.160,34596.000,20.000,0,0,0.000,2.242,0.074,9.676,-0.006,0.073,-0.005,0.306,0.536,9.656,11.000,68.000,120.000,-57.296,2.242,0,0,0,0,0,0,0,0
52,5,34613.160,34616.000,20.000,0,0,0.000,2.242,0.103,9.714,-0.048,0.088,-0.024,0.304,0.587,9.692,13.000,70.000,120.000,-57.296,2.242,0,0,0,0,0,0,0,0
53,5,34633.160,34636.000,20.000,0,0,0.000,2.242,0.104,9.634,-0.071,0.070,-0.029,0.175,0.500,9.620,15.000,69.000,120.000,-57.296,2.242,0,0,0,0,0,0,0,0
54,5,34653.152,34656.000,20.000,0,0,0.000,2.242,0.115,9.583,-0.088,0.058,-0.046,0.256,0.314,9.574,10.000,68.000,120.000,-57.296,2.242,0,0,0,0,0,0,0,0
55,5,34673.168,34676.000,20.000,0,0,0.000,2.242,0.109,9.618,-0.076,0.064,-0.046,0.280,0.256,9.610,12.000,67.000,120.000,-57.296,2.242,0,0,0,0,0,0,0,0
56,5,34693.160,34696.000,20.000,0,0,0.000,2.242,0.107,9.638,-0.074,0.057,-0.051,0.251,0.385,9.627,9.000,68.000,120.000,-57.296,2.242,0,0,0,0,0,0,0,0
57,5,34713.152,34716.000,20.000,0,0,0.000,2.242,0.114,9.644,-0.083,0.065,-0.044,0.294,0.381,9.632,11.000,68.000,120.000,-57.296,2.242,0,0,0,0,0,0,0,0
58,5,34733.160,34736.000,20.000,0,0,0.000,2.242,0.103,9.439,-0.056,0.073,-0.047,0.328,0.024,9.433,12.000,67.000,120.000,-57.296,2.242,0,0,0,0,0,0,0,0
59,5,34753.160,34756.000,20.000,0,0,0.000,2.242,0.087,9.391,0.017,0.073,-0.044,0.230,-0.103,9.388,11.000,70.000,120.000,-57.296,2.242,0,0,0,0,0,0,0,0
60,5,34773.148,34776.000,20.000,0,0,0.000,2.242,0.098,9.452,0.082,0.045,-0.029,0.041,0.022,9.452,15.000,69.000,120.000,-57.296,2.242,0,0,0,0,0,0,0,0
61,5,34798.152,34799.000,23.000,0,0,0.000,2.242,0.146,9.457,0.145,-0.008,-0.020,0.043,0.007,9.457,13.000,67.000,120.000,-57.296,2.242,0,0,0,0,0,0,0,0
62,5,34813.160,34816.000,17.000,0,0,0.000,2.242,0.157,9.637,0.153,-0.031,-0.009,0.199,0.335,9.629,13.000,66.000,120.000,-57.296,2.242,0,0,0,0,0,0,0,0
63,5,34833.160,34838.000,22.000,0,0,0.000,2.242,0.131,9.771,0.128,-0.023,0.016,0.402,0.505,9.749,13.000,70.000,120.000,-57.296,2.242,0,0,0,0,0,0,0,0
64,5,34853.160,34856.000,18.000,0,0,0.000,2.242,0.091,9.771,0.087,-0.008,0.026,0.287,0.582,9.749,10.000,68.000,120.000,-57.296,2.242,0,0,0,0,0,0,0,0
65,5,34873.148,34876.000,20.000,0,0,0.000,2.242,0.067,9.660,0.050,-0.005,0.045,0.259,0.453,9.646,7.000,70.000,120.000,-57.296,2.242,0,0,0,0,0,0,0,0
66,5,34893.160,34896.000,20.000,0,0,0.000,2.242,0.072,9.619,0.039,-0.016,0.059,0.180,0.472,9.606,13.000,68.000,120.000,-57.296,2.242,0,0,0,0,0,0,0,0
67,5,34913.160,34916.000,20.000,0,0,0.000,2.242,0.080,9.641,0.019,-0.046,0.063,0.175,0.541,9.625,10.000,67.000,120.000,-57.296,2.242,0,0,0,0,0,0,0,0
68,5,34933.164,34936.000,20.000,0,0,0.000,2.242,0.094,9.749,-0.035,-0.063,0.061,0.050,0.646,9.728,12.000,70.000,120.000,-57.296,2.242,0,0,0,0,0,0,0,0
69,5,34953.160,34956.000,20.000,0,0,0.000,2.242,0.145,9.946,-0.116,-0.073,0.048,0.333,0.917,9.898,8.000,69.000,120.000,-57.296,2.242,0,0,0,0,0,0,0,0
70,5,34973.168,34976.000,20.000,0,0,0.000,2.242,0.205,9.795,-0.201,-0.032,0.027,0.352,0.666,9.766,12.000,70.000,120.000,-57.296,2.242,0,0,0,0,0,0,0,0
71,5,34993.160,34996.000,20.000,0,0,0.000,2.242,0.233,9.727,-0.233,-0.005,0.003,0.453,0.390,9.708,11.000,67.000,120.000,-57.296,2.242,0,0,0,0,0,0,0,0
72,5,35013.160,35016.000,20.000,0,0,0.000,2.242,0.254,9.728,-0.250,0.040,-0.019,0.484,0.436,9.706,9.000,70.000,120.000,-57.296,2.242,0,0,0,0,0,0,0,0
73,5,35033.148,35036.000,20.000,0,0,0.000,2.242,0.296,9.730,-0.282,0.086,-0.029,0.448,0.366,9.713,11.000,69.000,120.000,-57.296,2.242,0,0,0,0,0,0,0,0
74,5,35053.160,35056.000,20.000,0,0,0.000,2.242,0.333,9.639,-0.305,0.127,-0.040,0.445,0.172,9.627,13.000,71.000,120.000,-57.296,2.242,0,0,0,0,0,0,0,0
75,5,35073.148,35076.000,20.000,0,0,0.000,2.242,0.333,9.531,-0.291,0.157,-0.038,0.402,-0.098,9.522,12.000,68.000,120.000,-57.296,2.242,0,0,0,0,0,0,0,0
76,5,35093.160,35096.000,20.000,0,0,0.000,2.242,0.286,9.426,-0.235,0.160,-0.028,0.175,-0.376,9.416,12.000,70.000,120.000,-57.296,2.242,0,0,0,0,0,0,0,0
77,5,35113.160,35116.000,20.000,0,0,0.000,2.242,0.190,9.427,-0.140,0.127,-0.012,0.141,-0.354,9.419,10.000,72.000,120.000,-57.296,2.242,0,0,0,0,0,0,0,0
78,5,35133.152,35136.000,20.000,0,0,0.000,2.242,0.176,9.713,-0.136,0.111,-0.007,0.172,0.079,9.711,12.000,72.000,120.000,-57.296,2.242,0,0,0,0,0,0,0,0
79,5,35153.160,35156.000,20.000,0,0,0.000,2.242,0.177,9.615,-0.145,0.102,0.000,0.144,-0.259,9.610,11.000,70.000,120.000,-57.296,2.242,0,0,0,0,0,0,0,0
80,5,35173.148,35176.000,20.000,0,0,0.000,2.242,0.150,9.436,-0.101,0.109,0.015,0.244,-0.354,9.426,13.000,70.000,120.000,-57.296,2.242,0,0,0,0,0,0,0,0
81,5,35193.160,35196.000,20.000,0,0,0.000,2.242,0.119,9.461,-0.037,0.106,0.037,0.103,-0.500,9.448,10.000,73.000,120.000,-57.296,2.242,0,0,0,0,0,0,0,0
82,5,35213.152,35216.000,20.000,0,0,0.000,2.242,0.106,9.422,0.038,0.087,0.048,-0.014,-0.493,9.409,12.000,72.000,120.000,-57.296,2.242,0,0,0,0,0,0,0,0
83,5,35233.160,35236.000,20.000,0,0,0.000,2.242,0.113,9.637,0.052,0.078,0.063,0.093,0.022,9.637,11.000,73.000,120.000,-57.296,2.242,0,0,0,0,0,0,0,0
84,5,35253.160,35256.000,20.000,0,0,0.000,2.242,0.097,9.549,0.042,0.044,0.076,-0.194,-0.163,9.546,13.000,73.000,120.000,-57.296,2.242,0,0,0,0,0,0,0,0
85,5,35273.148,35276.000,20.000,0,0,0.000,2.242,0.108,9.502,0.066,-0.003,0.085,-0.091,-0.268,9.498,11.000,73.000,120.000,-57.296,2.242,0,0,0,0,0,0,0,0
86,5,35293.168,35296.000,20.000,0,0,0.000,2.242,0.116,9.661,0.068,-0.030,0.088,-0.084,-0.019,9.661,12.000,73.000,120.000,-57.296,2.242,0,0,0,0,0,0,0,0
87,5,35313.160,35316.000,20.000,0,0,0.000,2.242,0.110,9.719,0.056,-0.049,0.080,0.148,0.057,9.718,12.000,71.000,120.000,-57.296,2.242,0,0,0,0,0,0,0,0
88,5,35333.160,35336.000,20.000,0,0,0.000,2.242,0.065,9.818,0.019,0.007,0.062,0.366,0.196,9.809,11.000,69.000,120.000,-57.296,2.242,0,0,0,0,0,0,0,0
89,5,35353.160,35356.000,20.000,0,0,0.000,2.242,0.067,9.739,-0.022,0.050,0.038,0.141,0.091,9.737,14.000,71.000,120.000,-57.296,2.242,0,0,0,0,0,0,0,0
90,5,35373.148,35376.000,20.000,0,0,0.000,2.242,0.091,9.746,-0.051,0.074,0.011,0.192,0.014,9.744,10.000,72.000,120.000,-57.296,2.242,0,0,0,0,0,0,0,0
91,5,35393.160,35396.000,20.000,0,0,0.000,2.242,0.122,9.648,-0.057,0.107,-0.007,0.108,-0.115,9.646,14.000,72.000,120.000,-57.296,2.242,0,0,0,0,0,0,0,0
92,5,35413.160,35416.000,20.000,0,0,0.000,2.242,0.126,9.621,-0.048,0.116,-0.015,0.002,-0.127,9.620,14.000,72.000,120.000,-57.296,2.242,0,0,0,0,0,0,0,0
93,5,35433.160,35436.000,20.000,0,0,0.000,2.242,0.129,9.622,-0.060,0.110,-0.032,-0.053,-0.012,9.622,12.000,68.000,120.000,-57.296,2.242,0,0,0,0,0,0,0,0
94,5,35453.160,35456.000,20.000,0,0,0.000,2.242,0.171,9.844,-0.110,0.127,-0.032,0.199,0.211,9.840,12.000,75.000,101.000,-163.497,358.927,0,0,0,0,0,0,0,0
95,5,35473.152,35476.000,20.000,0,0,0.000,2.242,0.217,9.653,-0.145,0.159,-0.024,0.187,-0.220,9.649,10.000,69.000,120.000,-57.296,358.927,0,0,0,0,0,0,0,0
96,5,35493.148,35496.000,20.000,0,0,0.000,2.242,0.249,9.669,-0.145,0.203,0.002,0.263,-0.230,9.663,13.000,68.000,120.000,-57.296,358.927,0,0,0,0,0,0,0,0
97,5,35513.160,35516.000,20.000,0,0,0.000,2.242,0.274,9.585,-0.137,0.231,0.057,0.072,-0.321,9.579,10.000,71.000,120.000,-57.296,358.927,0,0,0,0,0,0,0,0
98,5,35533.152,35536.000,20.000,0,0,0.000,2.242,0.260,9.402,-0.094,0.211,0.119,-0.036,-0.735,9.373,13.000,73.000,120.000,-57.296,358.927,0,0,0,0,0,0,0,0
99,5,35553.160,35556.000,20.000,0,0,0.000,2.340,0.253,9.426,0.013,0.174,0.183,-0.266,-0.747,9.392,10.000,69.000,120.000,-57.296,359.025,0,0,0,0,0,0,0,0
100,5,35573.160,35576.000,20.000,0,0,0.000,2.579,0.251,9.510,0.034,0.093,0.230,-0.488,-0.208,9.495,12.000,72.000,102.000,-160.893,356.061,0,0,0,0,0,0,0,0
101,5,35593.168,35596.000,20.000,0,0,0.000,2.867,0.277,9.540,0.022,0.049,0.271,-0.175,-0.297,9.534,9.000,69.000,120.000,-57.296,356.349,0,0,0,0,0,0,0,0
102,5,35613.160,35616.000,20.000,0,0,0.000,3.202,0.315,9.508,0.055,0.036,0.308,-0.115,-0.512,9.493,10.000,66.000,105.000,-155.899,353.633,0,0,0,0,0,0,0,0
103,5,35633.164,35636.000,20.000,0,0,0.000,3.572,0.346,9.620,0.087,0.034,0.333,-0.254,-0.280,9.613,11.000,66.000,64.000,178.163,350.485,0,0,0,0,0,0,0,0
104,5,35653.164,35656.000,20.000,0,0,0.000,3.964,0.356,9.771,0.057,0.015,0.351,-0.215,0.026,9.768,11.000,67.000,67.000,-180.000,347.460,0,0,0,0,0,0,0,0
105,5,35673.164,35676.000,20.000,0,0,0.000,4.369,0.356,9.677,0.002,0.007,0.356,-0.215,-0.026,9.675,12.000,69.000,120.000,-57.296,347.865,0,0,0,0,0,0,0,0
106,5,35693.148,35696.000,20.000,0,0,0.000,4.785,0.363,9.442,0.005,-0.012,0.363,-0.227,-0.445,9.428,12.000,65.000,106.000,-154.215,345.431,0,0,0,0,0,0,0,0
107,5,35713.148,35716.000,20.000,0,0,0.000,5.204,0.368,9.546,0.042,-0.031,0.364,-0.294,-0.385,9.534,8.000,65.000,120.000,-57.296,345.851,0,0,0,0,0,0,0,0
108,5,35733.160,35736.000,20.000,0,0,0.000,5.618,0.363,9.528,0.067,-0.050,0.353,-0.335,-0.218,9.519,10.000,63.000,120.000,-57.296,346.264,0,0,0,0,0,0,0,0
109,5,35753.160,35756.000,20.000,0,0,0.000,6.014,0.357,9.722,0.069,-0.085,0.340,-0.402,-0.093,9.713,11.000,63.000,71.000,-172.947,343.468,0,0,0,0,0,0,0,0
110,5,35773.164,35776.000,20.000,0,0,0.000,6.377,0.317,9.685,0.034,-0.086,0.303,-0.390,-0.060,9.677,10.000,64.000,80.000,-167.402,340.806,0,0,0,0,0,0,0,0
111,5,35793.148,35796.000,20.000,0,0,0.000,6.703,0.300,9.522,0.038,-0.127,0.269,-0.385,-0.285,9.510,10.000,64.000,120.000,-57.296,341.132,0,0,0,0,0,0,0,0
112,5,35813.160,35816.000,20.000,0,0,0.000,6.979,0.261,9.664,0.049,-0.130,0.220,-0.321,-0.081,9.658,10.000,60.000,120.000,-57.296,341.408,0,0,0,0,0,0,0,0
113,5,35833.160,35836.000,20.000,0,0,0.000,7.201,0.218,9.762,0.005,-0.137,0.169,-0.244,0.206,9.756,10.000,60.000,120.000,-57.296,341.630,0,0,0,0,0,0,0,0
114,5,35853.160,35856.000,20.000,0,0,0.000,7.246,0.166,9.722,-0.055,-0.111,0.111,0.050,0.153,9.720,11.000,63.000,120.000,-57.296,341.676,0,0,0,0,0,0,0,0
115,5,35873.160,35876.000,20.000,0,0,0.000,7.246,0.107,9.691,-0.086,-0.041,0.049,0.249,-0.103,9.687,10.000,62.000,77.000,-167.684,338.689,0,0,0,0,0,0,0,0
116,5,35893.168,35896.000,20.000,0,0,0.000,7.246,0.092,9.681,-0.082,0.040,-0.013,0.239,-0.096,9.677,10.000,61.000,120.000,-57.296,338.689,0,0,0,0,0,0,0,0
117,5,35913.160,35916.000,20.000,0,0,0.000,7.246,0.177,9.777,-0.119,0.110,-0.070,0.105,0.144,9.776,10.000,61.000,120.000,-57.296,338.689,0,0,0,0,0,0,0,0
118,5,35933.160,35936.000,20.000,0,0,0.000,7.246,0.278,9.911,-0.188,0.169,-0.115,0.081,0.117,9.910,10.000,63.000,120.000,-57.296,338.689,0,0,0,0,0,0,0,0
119,5,35953.160,35956.000,20.000,0,0,0.000,7.202,0.361,9.823,-0.251,0.209,-0.153,0.002,0.041,9.823,10.000,61.000,120.000,-57.296,338.645,0,0,0,0,0,0,0,0
120,5,35973.148,35976.000,20.000,0,0,0.000,7.009,0.417,9.723,-0.299,0.232,-0.174,-0.072,-0.215,9.720,11.000,61.000,63.000,-178.055,335.321,0,0,0,0,0,0,0,0
121,5,35993.148,35996.000,20.000,0,0,0.000,6.792,0.421,9.531,-0.295,0.229,-0.196,-0.323,-0.460,9.515,10.000,60.000,120.000,-57.296,335.104,0,0,0,0,0,0,0,0
122,5,36013.168,36016.000,20.000,0,0,0.000,6.568,0.394,9.514,-0.276,0.204,-0.195,-0.352,-0.599,9.488,8.000,62.000,53.000,171.052,331.603,0,0,0,0,0,0,0,0
123,5,36033.148,36036.000,20.000,0,0,0.000,6.354,0.349,9.471,-0.241,0.177,-0.181,-0.287,-0.702,9.440,10.000,61.000,52.000,170.485,328.171,0,0,0,0,0,0,0,0
124,5,36053.164,36056.000,20.000,0,0,0.000,6.162,0.295,9.565,-0.211,0.132,-0.158,-0.536,-0.740,9.522,12.000,64.000,60.000,176.037,324.941,0,0,0,0,0,0,0,0
125,5,36073.164,36076.000,20.000,0,0,0.000,6.162,0.222,9.455,-0.171,0.061,-0.127,-0.567,-0.927,9.392,9.000,63.000,120.000,-57.296,324.941,0,0,0,0,0,0,0,0
126,5,36093.148,36096.000,20.000,0,0,0.000,6.162,0.146,9.414,-0.110,0.014,-0.096,-0.397,-1.001,9.352,12.000,62.000,59.000,176.934,321.981,0,0,0,0,0,0,0,0
127,5,36113.168,36116.000,20.000,0,0,0.000,6.162,0.096,9.595,-0.073,-0.003,-0.062,-0.204,-0.819,9.558,9.000,64.000,59.000,175.285,319.047,0,0,0,0,0,0,0,0
128,5,36133.148,36136.000,20.000,0,0,0.000,6.162,0.053,9.543,-0.049,-0.002,-0.020,-0.230,-0.874,9.500,9.000,63.000,61.000,178.128,316.229,0,0,0,0,0,0,0,0
129,5,36153.164,36156.000,20.000,0,0,0.000,6.162,0.028,9.472,0.011,-0.014,0.021,-0.211,-1.068,9.409,12.000,63.000,57.000,173.822,313.380,0,0,0,0,0,0,0,0
130,5,36173.164,36176.000,20.000,0,0,0.000,6.162,0.094,9.542,0.070,-0.022,0.059,-0.297,-0.946,9.491,11.000,64.000,65.000,-179.073,310.731,0,0,0,0,0,0,0,0
131,5,36193.148,36196.000,20.000,0,0,0.000,6.162,0.138,9.540,0.096,-0.040,0.091,-0.211,-0.764,9.507,12.000,61.000,73.000,-169.300,308.331,0,0,0,0,0,0,0,0
132,5,36213.152,36216.000,20.000,0,0,0.000,6.162,0.146,9.647,0.100,-0.007,0.107,-0.062,-0.654,9.625,10.000,62.000,67.000,-175.457,305.855,0,0,0,0,0,0,0,0
133,5,36233.164,36236.000,20.000,0,0,0.000,6.162,0.161,9.695,0.088,0.052,0.125,0.093,-0.575,9.677,12.000,63.000,77.000,-168.193,303.574,0,0,0,0,0,0,0,0
134,5,36253.164,36256.000,20.000,0,0,0.000,6.162,0.195,9.631,0.075,0.109,0.143,-0.005,-0.591,9.613,9.000,61.000,67.000,-174.603,301.211,0,0,0,0,0,0,0,0
135,5,36273.164,36276.000,20.000,0,0,0.000,6.297,0.212,9.630,0.057,0.123,0.163,-0.287,-0.551,9.610,12.000,64.000,75.000,-170.593,299.107,0,0,0,0,0,0,0,0
136,5,36293.148,36296.000,20.000,0,0,0.000,6.496,0.215,9.603,0.045,0.113,0.178,-0.283,-0.575,9.582,10.000,63.000,61.000,178.092,296.881,0,0,0,0,0,0,0,0
137,5,36313.168,36316.000,20.000,0,0,0.000,6.713,0.231,9.723,0.017,0.124,0.194,-0.220,-0.438,9.711,10.000,61.000,54.000,172.727,294.610,0,0,0,0,0,0,0,0
138,5,36333.164,36336.000,20.000,0,0,0.000,6.947,0.262,9.730,-0.028,0.152,0.212,-0.163,-0.330,9.723,10.000,61.000,46.000,163.373,292.215,0,0,0,0,0,0,0,0
139,5,36353.164,36356.000,20.000,0,0,0.000,7.209,0.297,9.669,-0.061,0.163,0.241,-0.299,-0.508,9.651,10.000,63.000,51.000,167.532,289.978,0,0,0,0,0,0,0,0
140,5,36373.164,36376.000,20.000,0,0,0.000,7.499,0.316,9.616,-0.080,0.157,0.262,-0.395,-0.567,9.591,11.000,60.000,59.000,178.977,288.042,0,0,0,0,0,0,0,0
141,5,36393.148,36396.000,20.000,0,0,0.000,7.816,0.338,9.639,-0.088,0.143,0.293,-0.419,-0.577,9.613,10.000,61.000,63.000,-178.092,286.231,0,0,0,0,0,0,0,0
142,5,36413.168,36416.000,20.000,0,0,0.000,8.173,0.368,9.638,-0.111,0.131,0.326,-0.488,-0.579,9.608,11.000,57.000,60.000,-176.869,284.518,0,0,0,0,0,0,0,0
143,5,36433.164,36436.000,20.000,0,0,0.000,8.563,0.380,9.481,-0.103,0.102,0.351,-0.618,-0.895,9.419,11.000,59.000,55.000,175.693,282.724,0,0,0,0,0,0,0,0
144,5,36453.164,36456.000,20.000,0,0,0.000,8.980,0.376,9.477,-0.041,0.057,0.369,-0.661,-1.032,9.397,11.000,62.000,54.000,171.615,280.911,0,0,0,0,0,0,0,0
145,5,36473.148,36476.000,20.000,0,0,0.000,9.406,0.371,9.451,0.029,0.021,0.369,-0.637,-1.008,9.376,11.000,63.000,60.000,177.055,279.251,0,0,0,0,0,0,0,0
146,5,36493.164,36496.000,20.000,0,0,0.000,9.827,0.373,9.425,0.094,-0.008,0.361,-0.809,-1.020,9.335,11.000,58.000,56.000,177.844,277.635,0,0,0,0,0,0,0,0
147,5,36513.168,36516.000,20.000,0,0,0.000,10.226,0.378,9.544,0.154,-0.056,0.341,-0.737,-0.891,9.474,9.000,58.000,51.000,172.411,275.922,0,0,0,0,0,0,0,0
148,5,36533.148,36536.000,20.000,0,0,0.000,10.602,0.366,9.620,0.168,-0.050,0.322,-0.460,-0.627,9.589,12.000,60.000,59.000,178.955,274.351,0,0,0,0,0,0,0,0
149,5,36553.164,36556.000,20.000,0,0,0.000,10.961,0.353,9.588,0.170,-0.033,0.308,-0.436,-0.500,9.565,12.000,60.000,50.000,168.613,272.588,0,0,0,0,0,0,0,0
150,5,36573.164,36576.000,20.000,0,0,0.000,11.305,0.338,9.706,0.167,-0.015,0.294,-0.417,-0.450,9.687,11.000,57.000,58.000,-178.933,271.095,0,0,0,0,0,0,0,0
151,5,36593.164,36596.000,20.000,0,0,0.000,11.632,0.309,9.798,0.139,-0.006,0.276,-0.460,-0.311,9.783,9.000,58.000,58.000,-180.000,269.593,0,0,0,0,0,0,0,0
152,5,36613.168,36616.000,20.000,0,0,0.000,11.933,0.262,9.778,0.079,0.009,0.250,-0.486,-0.057,9.766,9.000,57.000,57.000,-180.000,268.097,0,0,0,0,0,0,0,0
153,5,36633.164,36636.000,20.000,0,0,0.000,12.208,0.231,9.761,-0.009,0.018,0.230,-0.508,-0.105,9.747,11.000,59.000,60.000,-178.977,266.624,0,0,0,0,0,0,0,0
154,5,36653.164,36656.000,20.000,0,0,0.000,12.466,0.230,9.666,-0.043,0.014,0.226,-0.536,-0.369,9.644,8.000,59.000,59.000,-180.000,265.145,0,0,0,0,0,0,0,0
155,5,36673.164,36676.000,20.000,0,0,0.000,12.717,0.223,9.663,-0.061,0.014,0.214,-0.579,-0.419,9.637,9.000,59.000,57.000,177.976,263.647,0,0,0,0,0,0,0,0
156,5,36693.164,36696.000,20.000,0,0,0.000,12.943,0.202,9.685,-0.078,0.004,0.186,-0.649,-0.316,9.658,10.000,56.000,55.000,178.910,262.174,0,0,0,0,0,0,0,0
157,5,36713.168,36716.000,20.000,0,0,0.000,13.089,0.193,9.820,-0.126,0.002,0.146,-0.539,-0.165,9.804,10.000,58.000,61.000,-176.995,260.734,0,0,0,0,0,0,0,0
158,5,36733.164,36736.000,20.000,0,0,0.000,13.089,0.214,9.780,-0.181,0.016,0.113,-0.438,-0.213,9.768,10.000,57.000,57.000,-180.000,259.119,0,0,0,0,0,0,0,0
159,5,36753.164,36756.000,20.000,0,0,0.000,13.089,0.248,9.744,-0.221,0.045,0.103,-0.376,-0.421,9.728,8.000,60.000,63.000,-177.220,257.592,0,0,0,0,0,0,0,0
160,5,36773.164,36776.000,20.000,0,0,0.000,13.089,0.278,9.894,-0.248,0.071,0.103,-0.900,-0.551,9.838,8.000,57.000,53.000,175.785,255.956,0,0,0,0,0,0,0,0
161,5,36793.164,36796.000,20.000,0,0,0.000,13.089,0.261,9.605,-0.232,0.059,0.103,-0.766,-0.800,9.541,11.000,57.000,58.000,-178.933,254.458,0,0,0,0,0,0,0,0
162,5,36813.148,36816.000,20.000,0,0,0.000,13.089,0.221,9.620,-0.198,0.007,0.099,-0.958,-0.862,9.534,9.000,58.000,59.000,-178.998,252.989,0,0,0,0,0,0,0,0
163,5,36833.152,36836.000,20.000,0,0,0.000,13.089,0.189,9.473,-0.162,-0.064,0.075,-1.001,-0.934,9.373,9.000,59.000,60.000,-179.018,251.549,0,0,0,0,0,0,0,0
164,5,36853.164,36856.000,20.000,0,0,0.000,13.089,0.187,9.529,-0.136,-0.123,0.035,-0.666,-0.857,9.467,9.000,60.000,56.000,175.956,250.037,0,0,0,0,0,0,0,0
165,5,36873.164,36876.000,20.000,0,0,0.000,13.089,0.160,9.399,-0.096,-0.128,-0.011,-0.469,-1.037,9.330,10.000,59.000,60.000,-178.998,248.656,0,0,0,0,0,0,0,0
166,5,36893.164,36896.000,20.000,0,0,0.000,13.089,0.159,9.460,-0.040,-0.143,-0.057,-0.663,-1.046,9.378,10.000,58.000,54.000,175.693,247.197,0,0,0,0,0,0,0,0
167,5,36913.148,36916.000,20.000,0,0,0.000,13.089,0.186,9.543,0.000,-0.161,-0.092,-0.639,-1.001,9.469,8.000,57.000,47.000,168.865,245.630,0,0,0,0,0,0,0,0
168,5,36933.148,36936.000,20.000,0,0,0.000,13.089,0.230,9.741,0.028,-0.185,-0.134,-0.838,-0.929,9.661,9.000,59.000,58.000,178.998,244.298,0,0,0,0,0,0,0,0
169,5,36953.164,36956.000,20.000,0,0,0.000,12.946,0.327,9.449,0.057,-0.265,-0.183,-0.745,-1.006,9.366,10.000,59.000,53.000,173.555,242.743,0,0,0,0,0,0,0,0
170,5,36973.148,36976.000,20.000,0,0,0.000,12.709,0.385,9.625,0.079,-0.298,-0.231,-0.548,-0.814,9.574,10.000,60.000,60.000,180.000,241.256,0,0,0,0,0,0,0,0
171,5,36993.160,36996.000,20.000,0,0,0.000,12.409,0.420,9.559,0.095,-0.294,-0.284,-0.204,-0.845,9.519,11.000,56.000,57.000,-178.910,239.759,0,0,0,0,0,0,0,0
172,5,37013.148,37016.000,20.000,0,0,0.000,12.051,0.437,9.594,0.105,-0.262,-0.334,-0.065,-0.800,9.560,10.000,58.000,62.000,-176.037,238.292,0,0,0,0,0,0,0,0
173,5,37033.172,37036.000,20.000,0,0,0.000,11.635,0.445,9.813,0.123,-0.182,-0.386,0.055,-0.704,9.787,10.000,57.000,80.000,-161.197,237.095,0,0,0,0,0,0,0,0
174,5,37053.164,37056.000,20.000,0,0,0.000,11.166,0.480,9.599,0.127,-0.181,-0.426,0.239,-0.773,9.565,11.000,61.000,120.000,-57.296,236.626,0,0,0,0,0,0,0,0
175,5,37073.160,37076.000,20.000,0,0,0.000,10.656,0.480,9.684,0.114,-0.106,-0.454,0.350,-0.618,9.658,9.000,59.000,120.000,-57.296,236.116,0,0,0,0,0,0,0,0
176,5,37093.160,37096.000,20.000,0,0,0.000,10.125,0.479,9.668,0.104,-0.039,-0.466,0.311,-0.709,9.637,11.000,61.000,120.000,-57.296,235.585,0,0,0,0,0,0,0,0
177,5,37108.137,37115.000,19.000,0,0,0.000,9.731,0.469,9.689,0.102,-0.023,-0.458,0.172,-0.718,9.661,9.000,59.000,38.000,155.278,235.190,0,0,0,0,0,0,0,0
178,5,37133.168,37136.000,21.000,0,0,0.000,9.107,0.427,9.766,0.089,0.017,-0.417,0.213,-0.613,9.744,13.000,61.000,80.000,-164.031,232.231,0,0,0,0,0,0,0,0
179,5,37153.164,37156.000,20.000,0,0,0.000,8.664,0.369,9.662,0.056,0.017,-0.364,0.259,-0.529,9.644,11.000,60.000,120.000,-57.296,231.788,0,0,0,0,0,0,0,0
180,5,37173.160,37176.000,20.000,0,0,0.000,8.289,0.307,9.528,0.051,-0.025,-0.302,-0.005,-0.761,9.498,9.000,63.000,59.000,176.189,230.309,0,0,0,0,0,0,0,0
181,5,37193.164,37196.000,20.000,0,0,0.000,7.983,0.262,9.577,0.075,-0.050,-0.246,0.218,-0.747,9.546,11.000,63.000,120.000,-57.296,230.002,0,0,0,0,0,0,0,0
182,5,37213.148,37216.000,20.000,0,0,0.000,7.748,0.196,9.629,0.068,-0.042,-0.179,0.290,-0.678,9.601,8.000,62.000,120.000,-57.296,229.767,0,0,0,0,0,0,0,0
183,5,37233.168,37236.000,20.000,0,0,0.000,7.657,0.124,9.637,0.053,-0.007,-0.112,0.476,-0.658,9.603,12.000,63.000,32.000,142.902,227.940,0,0,0,0,0,0,0,0
184,5,37253.164,37256.000,20.000,0,0,0.000,7.657,0.068,9.562,0.048,0.028,-0.038,0.242,-0.757,9.529,11.000,62.000,80.000,-165.436,227.273,0,0,0,0,0,0,0,0
185,5,37273.164,37276.000,20.000,0,0,0.000,7.657,0.065,9.575,0.055,0.015,0.030,0.165,-0.759,9.543,12.000,62.000,120.000,-57.296,227.273,0,0,0,0,0,0,0,0
186,5,37293.160,37296.000,20.000,0,0,0.000,7.657,0.129,9.548,0.093,0.002,0.090,0.237,-0.792,9.512,10.000,65.000,120.000,-57.296,227.273,0,0,0,0,0,0,0,0
187,5,37313.160,37316.000,20.000,0,0,0.000,7.657,0.155,9.646,0.098,0.009,0.120,0.239,-0.599,9.625,13.000,63.000,120.000,-57.296,227.273,0,0,0,0,0,0,0,0
188,5,37333.168,37336.000,20.000,0,0,0.000,7.657,0.175,9.772,0.089,0.042,0.144,0.424,-0.472,9.752,12.000,60.000,120.000,-57.296,227.273,0,0,0,0,0,0,0,0
189,5,37353.160,37356.000,20.000,0,0,0.000,7.843,0.204,9.722,0.066,0.088,0.171,0.397,-0.575,9.697,9.000,63.000,37.000,151.225,225.935,0,0,0,0,0,0,0,0
190,5,37373.164,37376.000,20.000,0,0,0.000,8.065,0.247,9.601,0.060,0.119,0.208,0.244,-0.555,9.582,13.000,64.000,120.000,-57.296,226.156,0,0,0,0,0,0,0,0
191,5,37393.160,37396.000,20.000,0,0,0.000,8.325,0.286,9.616,0.069,0.132,0.244,0.208,-0.625,9.594,9.000,61.000,120.000,-57.296,226.417,0,0,0,0,0,0,0,0
192,5,37408.137,37413.000,17.000,0,0,0.000,8.549,0.308,9.589,0.078,0.125,0.270,0.129,-0.596,9.570,9.000,61.000,120.000,-57.296,226.640,0,0,0,0,0,0,0,0
193,5,37428.137,37433.000,20.000,0,0,0.000,8.887,0.335,9.576,0.085,0.107,0.306,-0.055,-0.591,9.558,12.000,58.000,120.000,-57.296,226.978,0,0,0,0,0,0,0,0
194,5,37448.137,37455.000,22.000,0,0,0.000,9.266,0.363,9.534,0.093,0.070,0.344,-0.151,-0.584,9.515,11.000,60.000,120.000,-57.296,225.869,0,0,0,0,0,0,0,0
195,5,37473.148,37476.000,21.000,0,0,0.000,9.775,0.376,9.596,0.112,0.025,0.358,-0.151,-0.462,9.584,10.000,60.000,120.000,-57.296,226.379,0,0,0,0,0,0,0,0
196,5,37493.148,37496.000,20.000,0,0,0.000,10.179,0.360,9.665,0.100,0.001,0.346,-0.132,-0.323,9.658,8.000,60.000,120.000,-57.296,226.783,0,0,0,0,0,0,0,0
197,5,37513.160,37516.000,20.000,0,0,0.000,10.550,0.312,9.810,0.056,-0.008,0.307,-0.120,-0.113,9.809,13.000,60.000,120.000,-57.296,227.154,0,0,0,0,0,0,0,0
198,5,37533.168,37536.000,20.000,0,0,0.000,10.875,0.264,9.780,-0.006,-0.012,0.264,-0.180,-0.115,9.778,11.000,60.000,120.000,-57.296,227.478,0,0,0,0,0,0,0,0
199,5,37553.152,37556.000,20.000,0,0,0.000,11.139,0.212,9.715,-0.040,-0.017,0.208,-0.206,-0.285,9.708,10.000,61.000,52.000,170.485,226.597,0,0,0,0,0,0,0,0
200,5,37573.148,37576.000,20.000,0,0,0.000,11.341,0.168,9.688,-0.068,-0.029,0.151,-0.182,-0.271,9.682,10.000,59.000,120.000,-57.296,226.799,0,0,0,0,0,0,0,0
201,5,37593.160,37596.000,20.000,0,0,0.000,11.341,0.124,9.670,-0.086,-0.026,0.085,-0.084,-0.350,9.663,12.000,61.000,49.000,166.413,225.591,0,0,0,0,0,0,0,0
202,5,37613.164,37616.000,20.000,0,0,0.000,11.341,0.092,9.607,-0.085,-0.015,0.030,-0.086,-0.457,9.596,10.000,61.000,120.000,-57.296,225.591,0,0,0,0,0,0,0,0
203,5,37633.148,37636.000,20.000,0,0,0.000,11.341,0.085,9.642,-0.079,0.006,-0.031,-0.012,-0.484,9.629,9.000,60.000,120.000,-57.296,225.591,0,0,0,0,0,0,0,0
204,5,37653.160,37656.000,20.000,0,0,0.000,11.341,0.115,9.522,-0.070,0.049,-0.077,0.041,-0.599,9.503,10.000,59.000,120.000,-57.296,225.591,0,0,0,0,0,0,0,0
205,5,37673.160,37676.000,20.000,0,0,0.000,11.341,0.120,9.480,-0.041,0.055,-0.098,-0.026,-0.692,9.455,12.000,59.000,120.000,-57.296,225.591,0,0,0,0,0,0,0,0
206,5,37693.160,37696.000,20.000,0,0,0.000,11.341,0.102,9.533,-0.005,0.030,-0.098,-0.132,-0.713,9.505,9.000,61.000,59.000,178.055,224.641,0,0,0,0,0,0,0,0
207,5,37713.148,37716.000,20.000,0,0,0.000,11.341,0.098,9.568,0.030,-0.000,-0.094,-0.117,-0.713,9.541,11.000,59.000,120.000,-57.296,224.641,0,0,0,0,0,0,0,0
208,5,37733.152,37736.000,20.000,0,0,0.000,11.341,0.107,9.536,0.049,-0.025,-0.091,-0.194,-0.644,9.512,10.000,61.000,44.000,160.893,223.366,0,0,0,0,0,0,0,0
209,5,37753.160,37756.000,20.000,0,0,0.000,11.341,0.115,9.689,0.055,-0.048,-0.088,-0.005,-0.426,9.680,11.000,61.000,120.000,-57.296,223.366,0,0,0,0,0,0,0,0
210,5,37773.160,37776.000,20.000,0,0,0.000,11.341,0.108,9.678,0.030,-0.056,-0.088,-0.022,-0.491,9.665,11.000,62.000,120.000,-57.296,223.366,0,0,0,0,0,0,0,0
211,5,37793.160,37796.000,20.000,0,0,0.000,11.341,0.096,9.622,0.022,-0.044,-0.083,0.175,-0.498,9.608,10.000,61.000,120.000,-57.296,223.366,0,0,0,0,0,0,0,0
212,5,37813.160,37816.000,20.000,0,0,0.000,11.341,0.073,9.667,0.016,-0.027,-0.066,0.211,-0.476,9.653,10.000,59.000,120.000,-57.296,223.366,0,0,0,0,0,0,0,0
213,5,37833.148,37836.000,20.000,0,0,0.000,11.341,0.047,9.656,0.010,-0.007,-0.046,0.180,-0.546,9.639,12.000,61.000,120.000,-57.296,223.366,0,0,0,0,0,0,0,0
214,5,37853.164,37856.000,20.000,0,0,0.000,11.341,0.037,9.596,0.027,-0.003,-0.025,0.141,-0.634,9.574,10.000,60.000,120.000,-57.296,223.366,0,0,0,0,0,0,0,0
215,5,37873.160,37876.000,20.000,0,0,0.000,11.341,0.045,9.552,0.045,-0.001,0.001,0.184,-0.601,9.531,10.000,60.000,120.000,-57.296,223.366,0,0,0,0,0,0,0,0
216,5,37888.137,37893.000,17.000,0,0,0.000,11.341,0.055,9.597,0.051,-0.010,0.019,0.134,-0.570,9.579,10.000,60.000,120.000,-57.296,223.366,0,0,0,0,0,0,0,0
217,5,37913.148,37916.000,23.000,0,0,0.000,11.341,0.079,9.606,0.063,-0.003,0.048,0.184,-0.539,9.589,8.000,61.000,120.000,-57.296,223.366,0,0,0,0,0,0,0,0
218,5,37933.168,37936.000,20.000,0,0,0.000,11.341,0.090,9.616,0.068,0.007,0.059,0.132,-0.479,9.603,11.000,62.000,73.000,-170.430,222.690,0,0,0,0,0,0,0,0
219,5,37953.168,37956.000,20.000,0,0,0.000,11.341,0.079,9.694,0.048,0.012,0.062,0.168,-0.330,9.687,10.000,63.000,120.000,-57.296,222.690,0,0,0,0,0,0,0,0
220,5,37973.148,37976.000,20.000,0,0,0.000,11.341,0.067,9.717,0.016,0.026,0.060,0.153,-0.225,9.713,10.000,60.000,96.000,-155.369,222.329,0,0,0,0,0,0,0,0
221,5,37993.164,37996.000,20.000,0,0,0.000,11.341,0.067,9.674,-0.018,0.034,0.054,0.098,-0.335,9.668,10.000,61.000,120.000,-57.296,222.329,0,0,0,0,0,0,0,0
222,5,38013.168,38016.000,20.000,0,0,0.000,11.341,0.081,9.705,-0.046,0.041,0.053,0.098,-0.328,9.699,10.000,60.000,120.000,-57.296,222.329,0,0,0,0,0,0,0,0
223,5,38033.148,38036.000,20.000,0,0,0.000,11.341,0.090,9.654,-0.063,0.043,0.047,0.089,-0.476,9.641,9.000,62.000,120.000,-57.296,222.329,0,0,0,0,0,0,0,0
224,5,38053.168,38056.000,20.000,0,0,0.000,11.341,0.096,9.626,-0.065,0.045,0.053,0.098,-0.539,9.610,11.000,62.000,120.000,-57.296,222.329,0,0,0,0,0,0,0,0
225,5,38073.160,38076.000,20.000,0,0,0.000,11.341,0.098,9.524,-0.050,0.050,0.068,0.084,-0.702,9.498,11.000,61.000,120.000,-57.296,222.329,0,0,0,0,0,0,0,0
226,5,38093.160,38096.000,20.000,0,0,0.000,11.341,0.097,9.503,-0.022,0.035,0.087,0.031,-0.675,9.479,10.000,59.000,120.000,-57.296,222.329,0,0,0,0,0,0,0,0
227,5,38113.160,38116.000,20.000,0,0,0.000,11.341,0.114,9.422,0.012,0.006,0.113,-0.055,-0.709,9.395,10.000,60.000,120.000,-57.296,222.329,0,0,0,0,0,0,0,0
228,5,38133.152,38136.000,20.000,0,0,0.000,11.341,0.139,9.450,0.038,-0.031,0.130,-0.096,-0.673,9.426,10.000,61.000,120.000,-57.296,222.329,0,0,0,0,0,0,0,0
229,5,38153.168,38156.000,20.000,0,0,0.000,11.341,0.159,9.570,0.072,-0.067,0.125,-0.079,-0.639,9.548,10.000,60.000,17.000,127.428,220.431,0,0,0,0,0,0,0,0
230,5,38173.164,38176.000,20.000,0,0,0.000,11.341,0.154,9.629,0.089,-0.079,0.097,0.007,-0.479,9.618,11.000,60.000,120.000,-57.296,220.431,0,0,0,0,0,0,0,0
231,5,38193.160,38196.000,20.000,0,0,0.000,11.341,0.111,9.615,0.083,-0.058,0.046,0.024,-0.371,9.608,10.000,62.000,120.000,-57.296,220.431,0,0,0,0,0,0,0,0
232,5,38213.152,38216.000,20.000,0,0,0.000,11.341,0.051,9.741,0.044,-0.026,-0.003,0.194,-0.201,9.737,8.000,59.000,73.000,-168.193,219.858,0,0,0,0,0,0,0,0
233,5,38233.164,38236.000,20.000,0,0,0.000,11.341,0.048,9.658,0.005,0.009,-0.047,0.180,-0.316,9.651,11.000,60.000,120.000,-57.296,219.858,0,0,0,0,0,0,0,0
234,5,38253.168,38256.000,20.000,0,0,0.000,11.341,0.073,9.672,-0.009,0.030,-0.066,0.187,-0.378,9.663,11.000,62.000,120.000,-57.296,219.858,0,0,0,0,0,0,0,0
235,5,38273.160,38276.000,20.000,0,0,0.000,11.341,0.094,9.551,-0.012,0.038,-0.085,0.120,-0.474,9.538,8.000,59.000,120.000,-57.296,219.858,0,0,0,0,0,0,0,0
236,5,38293.160,38296.000,20.000,0,0,0.000,11.341,0.085,9.522,-0.003,0.036,-0.077,0.043,-0.575,9.505,10.000,58.000,31.000,145.872,218.378,0,0,0,0,0,0,0,0
237,5,38313.164,38316.000,20.000,0,0,0.000,11.341,0.066,9.563,0.013,0.021,-0.062,0.091,-0.611,9.543,9.000,61.000,120.000,-57.296,218.378,0,0,0,0,0,0,0,0
238,5,38333.160,38336.000,20.000,0,0,0.000,11.341,0.060,9.533,0.022,0.007,-0.055,0.067,-0.515,9.519,10.000,61.000,120.000,-57.296,218.378,0,0,0,0,0,0,0,0
239,5,38353.168,38356.000,20.000,0,0,0.000,11.341,0.049,9.643,0.023,-0.001,-0.042,0.115,-0.443,9.632,9.000,60.000,120.000,-57.296,218.378,0,0,0,0,0,0,0,0
240,5,38373.160,38376.000,20.000,0,0,0.000,11.341,0.035,9.661,0.023,-0.002,-0.026,0.117,-0.481,9.649,11.000,62.000,88.000,-160.617,217.998,0,0,0,0,0,0,0,0
241,5,38393.164,38396.000,20.000,0,0,0.000,11.341,0.020,9.699,0.018,-0.005,-0.007,0.089,-0.414,9.689,11.000,64.000,84.000,-164.628,217.546,0,0,0,0,0,0,0,0
242,5,38413.164,38416.000,20.000,0,0,0.000,11.341,0.022,9.647,-0.002,-0.021,0.006,0.086,-0.445,9.637,8.000,60.000,120.000,-57.296,217.546,0,0,0,0,0,0,0,0
243,5,38433.160,38436.000,20.000,0,0,0.000,11.341,0.036,9.639,-0.013,-0.028,0.019,0.089,-0.426,9.629,10.000,60.000,120.000,-57.296,217.546,0,0,0,0,0,0,0,0
244,5,38453.168,38456.000,20.000,0,0,0.000,11.341,0.048,9.578,-0.019,-0.038,0.024,0.175,-0.429,9.567,12.000,59.000,119.000,-145.988,217.475,0,0,0,0,0,0,0,0
245,5,38473.148,38476.000,20.000,0,0,0.000,11.341,0.042,9.581,-0.010,-0.028,0.030,0.247,-0.589,9.560,10.000,62.000,120.000,-57.296,217.475,0,0,0,0,0,0,0,0
246,5,38493.160,38496.000,20.000,0,0,0.000,11.341,0.039,9.759,-0.014,0.007,0.035,0.402,-0.421,9.742,11.000,60.000,120.000,-57.296,217.475,0,0,0,0,0,0,0,0
247,5,38513.160,38516.000,20.000,0,0,0.000,11.341,0.051,9.594,-0.001,0.023,0.046,0.244,-0.601,9.572,11.000,59.000,120.000,-57.296,217.475,0,0,0,0,0,0,0,0
248,5,38533.152,38536.000,20.000,0,0,0.000,11.341,0.069,9.547,0.023,0.032,0.057,0.227,-0.618,9.524,12.000,62.000,120.000,-57.296,217.475,0,0,0,0,0,0,0,0
249,5,38553.152,38556.000,20.000,0,0,0.000,11.341,0.086,9.537,0.036,0.030,0.072,0.156,-0.601,9.517,12.000,60.000,120.000,-57.296,217.475,0,0,0,0,0,0,0,0
250,5,38573.168,38576.000,20.000,0,0,0.000,11.341,0.096,9.564,0.051,0.021,0.079,0.136,-0.532,9.548,10.000,61.000,120.000,-57.296,217.475,0,0,0,0,0,0,0,0
251,5,38593.160,38596.000,20.000,0,0,0.000,11.341,0.086,9.628,0.049,0.019,0.068,0.077,-0.443,9.618,10.000,64.000,120.000,-57.296,217.475,0,0,0,0,0,0,0,0
252,5,38613.160,38616.000,20.000,0,0,0.000,11.341,0.076,9.764,0.040,0.037,0.052,0.335,-0.280,9.754,12.000,60.000,120.000,-57.296,217.475,0,0,0,0,0,0,0,0
253,5,38633.160,38636.000,20.000,0,0,0.000,11.341,0.092,9.685,0.007,0.083,0.039,0.302,-0.335,9.675,13.000,61.000,120.000,-57.296,217.475,0,0,0,0,0,0,0,0
254,5,38653.148,38656.000,20.000,0,0,0.000,11.341,0.105,9.617,-0.005,0.100,0.032,0.177,-0.443,9.606,10.000,61.000,120.000,-57.296,217.475,0,0,0,0,0,0,0,0
255,5,38673.168,38676.000,20.000,0,0,0.000,11.341,0.104,9.657,-0.011,0.092,0.046,0.115,-0.433,9.646,10.000,63.000,120.000,-57.296,217.475,0,0,0,0,0,0,0,0
256,5,38729.965,38731.000,55.000,0,0,0.000,11.341,0.117,9.603,-0.011,0.056,0.102,-0.031,-0.515,9.589,11.000,61.000,120.000,-57.296,216.830,0,0,0,0,0,0,0,0
257,5,38729.965,38731.000,0.000,0,0,0.000,11.341,0.117,9.603,-0.011,0.056,0.102,-0.031,-0.515,9.589,11.000,61.000,120.000,-57.296,216.830,0,0,0,0,0,0,0,0
258,5,38729.965,38743.000,12.000,0,0,0.000,11.341,0.117,9.603,-0.011,0.056,0.102,-0.031,-0.515,9.589,11.000,60.000,27.000,138.673,216.830,0,0,0,0,0,0,0,0
259,5,38745.254,38756.000,13.000,0,0,0.000,11.341,0.123,9.592,-0.004,0.045,0.114,0.014,-0.500,9.579,11.000,60.000,27.000,138.673,215.267,0,0,0,0,0,0,0,0
260,5,38784.793,38786.000,30.000,0,0,0.000,11.341,0.126,9.652,-0.018,0.027,0.121,0.084,-0.441,9.641,9.000,61.000,120.000,-57.296,215.267,0,0,0,0,0,0,0,0
261,5,38803.934,38805.000,19.000,0,0,0.000,11.341,0.129,9.618,-0.029,0.026,0.122,0.041,-0.484,9.606,11.000,61.000,120.000,-57.296,215.267,0,0,0,0,0,0,0,0
262,5,38823.352,38824.000,19.000,0,0,0.000,11.341,0.115,9.613,-0.018,0.022,0.112,0.014,-0.524,9.598,9.000,60.000,120.000,-57.296,215.267,0,0,0,0,0,0,0,0
263,5,38842.441,38843.000,19.000,0,0,0.000,11.341,0.103,9.537,-0.018,0.016,0.100,-0.060,-0.453,9.527,13.000,59.000,120.000,-57.296,215.267,0,0,0,0,0,0,0,0
264,5,38861.961,38863.000,20.000,0,0,0.000,11.341,0.085,9.561,0.001,0.005,0.085,-0.062,-0.575,9.543,10.000,60.000,120.000,-57.296,215.267,0,0,0,0,0,0,0,0
265,5,38881.496,38882.000,19.000,0,0,0.000,11.341,0.063,9.562,0.017,0.006,0.061,0.034,-0.563,9.546,10.000,60.000,58.000,177.976,214.521,0,0,0,0,0,0,0,0
266,5,38901.070,38902.000,20.000,0,0,0.000,11.341,0.051,9.562,0.032,0.004,0.039,0.010,-0.553,9.546,10.000,58.000,120.000,-57.296,214.521,0,0,0,0,0,0,0,0
267,5,38920.488,38921.000,19.000,0,0,0.000,11.341,0.048,9.569,0.044,0.017,0.010,0.060,-0.508,9.555,13.000,61.000,120.000,-57.296,214.521,0,0,0,0,0,0,0,0
268,5,38940.121,38941.000,20.000,0,0,0.000,11.341,0.051,9.614,0.044,0.023,-0.014,-0.029,-0.503,9.601,10.000,61.000,120.000,-57.296,214.521,0,0,0,0,0,0,0,0
269,5,38948.137,38959.000,18.000,0,0,0.000,11.341,0.056,9.618,0.045,0.023,-0.025,-0.031,-0.491,9.606,13.000,60.000,120.000,-57.296,214.521,0,0,0,0,0,0,0,0
270,5,38979.227,38980.000,21.000,0,0,0.000,11.341,0.075,9.598,0.035,0.035,-0.056,0.010,-0.421,9.589,9.000,60.000,120.000,-57.296,214.521,0,0,0,0,0,0,0,0
271,5,38998.922,39000.000,20.000,0,0,0.000,11.341,0.072,9.644,0.037,0.026,-0.055,-0.010,-0.443,9.634,12.000,58.000,120.000,-57.296,214.521,0,0,0,0,0,0,0,0
272,5,39018.723,39020.000,20.000,0,0,0.000,11.341,0.063,9.646,0.028,0.022,-0.052,-0.002,-0.419,9.637,9.000,60.000,120.000,-57.296,214.521,0,0,0,0,0,0,0,0
273,5,39038.355,39039.000,19.000,0,0,0.000,11.341,0.052,9.569,0.032,0.007,-0.040,0.005,-0.512,9.555,9.000,60.000,120.000,-57.296,214.521,0,0,0,0,0,0,0,0
274,5,39058.230,39059.000,20.000,0,0,0.000,11.341,0.045,9.614,0.035,-0.003,-0.028,0.045,-0.503,9.601,11.000,59.000,74.000,-166.826,214.094,0,0,0,0,0,0,0,0
275,5,39073.168,39078.000,19.000,0,0,0.000,11.341,0.035,9.690,0.033,-0.006,-0.011,0.115,-0.426,9.680,10.000,61.000,53.000,171.615,213.244,0,0,0,0,0,0,0,0
276,5,39093.164,39098.000,20.000,0,0,0.000,11.341,0.027,9.626,0.024,-0.003,0.011,0.105,-0.455,9.615,13.000,59.000,83.000,-160.285,212.974,0,0,0,0,0,0,0,0
277,5,39113.164,39118.000,20.000,0,0,0.000,11.341,0.033,9.647,0.020,-0.007,0.025,0.091,-0.481,9.634,11.000,61.000,47.000,164.254,211.999,0,0,0,0,0,0,0,0
278,5,39133.148,39138.000,20.000,0,0,0.000,11.341,0.050,9.577,0.013,0.001,0.048,0.108,-0.421,9.567,12.000,60.000,120.000,-57.296,211.999,0,0,0,0,0,0,0,0
279,5,39153.160,39157.000,19.000,0,0,0.000,11.341,0.076,9.648,0.013,-0.015,0.074,-0.017,-0.512,9.634,9.000,62.000,120.000,-57.296,211.999,0,0,0,0,0,0,0,0
280,5,39168.137,39176.000,19.000,0,0,0.000,11.341,0.083,9.577,0.016,-0.024,0.078,0.038,-0.441,9.567,11.000,62.000,120.000,-57.296,211.999,0,0,0,0,0,0,0,0
281,5,39193.160,39197.000,21.000,0,0,0.000,11.341,0.083,9.590,0.015,-0.023,0.079,0.141,-0.429,9.579,13.000,61.000,120.000,-57.296,211.999,0,0,0,0,0,0,0,0
282,5,39213.152,39217.000,20.000,0,0,0.000,11.341,0.076,9.713,0.016,-0.007,0.074,0.146,-0.448,9.701,11.000,62.000,120.000,-57.296,211.999,0,0,0,0,0,0,0,0
283,5,39233.160,39235.000,18.000,0,0,0.000,11.341,0.059,9.576,0.011,0.008,0.058,0.110,-0.405,9.567,11.000,61.000,120.000,-57.296,211.999,0,0,0,0,0,0,0,0
284,5,39253.160,39256.000,21.000,0,0,0.000,11.341,0.049,9.575,0.011,0.018,0.045,0.086,-0.426,9.565,9.000,60.000,120.000,-57.296,211.999,0,0,0,0,0,0,0,0
285,5,39273.168,39276.000,20.000,0,0,0.000,11.341,0.032,9.656,0.014,0.015,0.025,0.053,-0.424,9.646,12.000,60.000,120.000,-57.296,211.999,0,0,0,0,0,0,0,0
286,5,39293.160,39296.000,20.000,0,0,0.000,11.341,0.029,9.644,0.009,0.025,0.011,0.084,-0.424,9.634,12.000,61.000,120.000,-57.296,211.999,0,0,0,0,0,0,0,0
287,5,39313.160,39316.000,20.000,0,0,0.000,11.341,0.032,9.624,0.015,0.028,0.000,0.093,-0.460,9.613,10.000,61.000,120.000,-57.296,211.999,0,0,0,0,0,0,0,0
288,5,39333.160,39336.000,20.000,0,0,0.000,11.341,0.035,9.587,0.017,0.027,-0.013,0.019,-0.450,9.577,11.000,60.000,82.000,-162.383,211.712,0,0,0,0,0,0,0,0
289,5,39353.164,39356.000,20.000,0,0,0.000,11.341,0.030,9.614,0.017,0.018,-0.017,0.022,-0.393,9.606,11.000,59.000,98.000,-153.418,211.609,0,0,0,0,0,0,0,0
290,5,39373.148,39376.000,20.000,0,0,0.000,11.341,0.036,9.567,0.015,0.019,-0.026,0.115,-0.409,9.558,9.000,58.000,120.000,-57.296,211.609,0,0,0,0,0,0,0,0
291,5,39393.164,39396.000,20.000,0,0,0.000,11.341,0.038,9.614,0.010,0.030,-0.022,0.110,-0.400,9.606,9.000,60.000,120.000,-57.296,211.609,0,0,0,0,0,0,0,0
292,5,39413.160,39416.000,20.000,0,0,0.000,11.341,0.028,9.641,0.002,0.025,-0.012,0.057,-0.469,9.629,10.000,60.000,120.000,-57.296,211.609,0,0,0,0,0,0,0,0
293,5,39433.160,39436.000,20.000,0,0,0.000,11.341,0.011,9.539,0.011,-0.001,-0.002,-0.002,-0.529,9.524,9.000,61.000,120.000,-57.296,211.609,0,0,0,0,0,0,0,0
294,5,39453.160,39456.000,20.000,0,0,0.000,11.341,0.027,9.591,0.020,-0.016,0.008,0.077,-0.472,9.579,13.000,59.000,120.000,-57.296,211.609,0,0,0,0,0,0,0,0
295,5,39473.152,39476.000,20.000,0,0,0.000,11.341,0.032,9.585,0.024,-0.006,0.020,0.136,-0.426,9.574,10.000,61.000,120.000,-57.296,211.609,0,0,0,0,0,0,0,0
296,5,39493.148,39496.000,20.000,0,0,0.000,11.341,0.031,9.646,0.018,-0.002,0.026,0.136,-0.402,9.637,11.000,61.000,120.000,-57.296,211.609,0,0,0,0,0,0,0,0
297,5,39513.160,39516.000,20.000,0,0,0.000,11.341,0.030,9.640,0.006,0.009,0.028,0.201,-0.402,9.629,10.000,61.000,120.000,-57.296,211.609,0,0,0,0,0,0,0,0
298,5,39533.148,39536.000,20.000,0,0,0.000,11.341,0.040,9.633,0.002,0.020,0.034,0.122,-0.484,9.620,11.000,61.000,120.000,-57.296,211.609,0,0,0,0,0,0,0,0
299,5,39553.164,39556.000,20.000,0,0,0.000,11.341,0.048,9.558,0.015,0.008,0.045,0.089,-0.515,9.543,10.000,59.000,67.000,-172.552,211.126,0,0,0,0,0,0,0,0
300,5,39573.148,39576.000,20.000,0,0,0.000,11.341,0.063,9.576,0.027,0.016,0.054,0.127,-0.529,9.560,10.000,61.000,75.000,-168.193,210.740,0,0,0,0,0,0,0,0
301,5,39593.168,39596.000,20.000,0,0,0.000,11.341,0.068,9.542,0.040,0.012,0.053,0.101,-0.498,9.529,11.000,64.000,64.000,-180.000,210.125,0,0,0,0,0,0,0,0
302,5,39613.148,39616.000,20.000,0,0,0.000,11.341,0.078,9.594,0.056,0.023,0.048,0.129,-0.479,9.582,9.000,58.000,120.000,-57.296,210.125,0,0,0,0,0,0,0,0
303,5,39633.160,39636.000,20.000,0,0,0.000,11.341,0.080,9.650,0.054,0.040,0.044,0.153,-0.385,9.641,11.000,61.000,120.000,-57.296,210.125,0,0,0,0,0,0,0,0
304,5,39653.160,39656.000,20.000,0,0,0.000,11.341,0.074,9.674,0.045,0.052,0.029,0.077,-0.340,9.668,12.000,63.000,120.000,-57.296,210.125,0,0,0,0,0,0,0,0
305,5,39673.148,39676.000,20.000,0,0,0.000,11.341,0.063,9.691,0.037,0.047,0.020,0.024,-0.345,9.685,12.000,61.000,120.000,-57.296,210.125,0,0,0,0,0,0,0,0
306,5,39693.168,39696.000,20.000,0,0,0.000,11.341,0.045,9.694,0.020,0.036,0.018,0.005,-0.297,9.689,9.000,59.000,120.000,-57.296,210.125,0,0,0,0,0,0,0,0
307,5,39713.152,39716.000,20.000,0,0,0.000,11.341,0.031,9.612,0.014,0.023,0.016,-0.096,-0.390,9.603,12.000,61.000,120.000,-57.296,210.125,0,0,0,0,0,0,0,0
308,5,39733.160,39736.000,20.000,0,0,0.000,11.341,0.026,9.599,0.002,-0.005,0.026,-0.019,-0.388,9.591,9.000,60.000,63.000,-177.167,209.579,0,0,0,0,0,0,0,0
309,5,39753.164,39756.000,20.000,0,0,0.000,11.341,0.040,9.568,0.006,-0.031,0.024,-0.026,-0.400,9.560,13.000,57.000,120.000,-57.296,209.579,0,0,0,0,0,0,0,0
310,5,39773.152,39776.000,20.000,0,0,0.000,11.341,0.037,9.610,-0.001,-0.031,0.019,0.086,-0.354,9.603,9.000,60.000,120.000,-57.296,209.579,0,0,0,0,0,0,0,0
311,5,39793.168,39796.000,20.000,0,0,0.000,11.341,0.033,9.658,-0.015,-0.028,0.011,0.134,-0.338,9.651,10.000,59.000,120.000,-57.296,209.579,0,0,0,0,0,0,0,0
312,5,39813.160,39816.000,20.000,0,0,0.000,11.341,0.028,9.590,-0.026,-0.011,0.005,0.127,-0.388,9.582,10.000,59.000,120.000,-57.296,209.579,0,0,0,0,0,0,0,0
313,5,39833.160,39836.000,20.000,0,0,0.000,11.341,0.022,9.542,-0.015,-0.013,0.010,0.098,-0.491,9.529,11.000,60.000,120.000,-57.296,209.579,0,0,0,0,0,0,0,0
314,5,39853.160,39856.000,20.000,0,0,0.000,11.341,0.023,9.576,-0.003,-0.019,0.012,0.144,-0.441,9.565,11.000,61.000,120.000,-57.296,209.579,0,0,0,0,0,0,0,0
315,5,39873.160,39876.000,20.000,0,0,0.000,11.341,0.021,9.575,0.006,-0.018,0.008,0.098,-0.431,9.565,10.000,63.000,120.000,-57.296,209.579,0,0,0,0,0,0,0,0
316,5,39893.168,39896.000,20.000,0,0,0.000,11.341,0.012,9.650,0.007,-0.010,0.000,0.175,-0.376,9.641,12.000,61.000,120.000,-57.296,209.579,0,0,0,0,0,0,0,0
317,5,39913.160,39916.000,20.000,0,0,0.000,11.341,0.007,9.650,0.005,-0.002,-0.003,0.187,-0.472,9.637,11.000,60.000,120.000,-57.296,209.579,0,0,0,0,0,0,0,0
318,5,39933.160,39936.000,20.000,0,0,0.000,11.341,0.021,9.659,0.009,0.019,-0.004,0.225,-0.441,9.646,11.000,62.000,120.000,-57.296,209.579,0,0,0,0,0,0,0,0
319,5,39953.160,39956.000,20.000,0,0,0.000,11.341,0.037,9.658,0.006,0.036,-0.007,0.206,-0.383,9.649,11.000,60.000,120.000,-57.296,209.579,0,0,0,0,0,0,0,0
320,5,39973.148,39976.000,20.000,0,0,0.000,11.341,0.036,9.640,0.003,0.036,-0.001,0.077,-0.433,9.629,10.000,62.000,79.000,-166.323,209.261,0,0,0,0,0,0,0,0
321,5,39993.168,39996.000,20.000,0,0,0.000,11.341,0.030,9.663,-0.002,0.028,0.009,0.113,-0.350,9.656,9.000,59.000,88.000,-158.725,209.101,0,0,0,0,0,0,0,0
322,5,40013.164,40016.000,20.000,0,0,0.000,11.341,0.034,9.649,-0.003,0.024,0.024,0.093,-0.433,9.639,11.000,60.000,120.000,-57.296,209.101,0,0,0,0,0,0,0,0
323,5,40033.152,40036.000,20.000,0,0,0.000,11.341,0.041,9.613,-0.007,0.014,0.038,0.168,-0.460,9.601,10.000,61.000,120.000,-57.296,209.101,0,0,0,0,0,0,0,0
324,5,40053.160,40056.000,20.000,0,0,0.000,11.341,0.059,9.608,-0.002,0.022,0.054,0.211,-0.481,9.594,11.000,60.000,120.000,-57.296,209.101,0,0,0,0,0,0,0,0
325,5,40073.160,40076.000,20.000,0,0,0.000,11.341,0.073,9.635,0.005,0.032,0.066,0.175,-0.462,9.622,8.000,60.000,120.000,-57.296,209.101,0,0,0,0,0,0,0,0
326,5,40093.168,40096.000,20.000,0,0,0.000,11.341,0.078,9.621,0.011,0.035,0.069,0.132,-0.431,9.610,11.000,61.000,120.000,-57.296,209.101,0,0,0,0,0,0,0,0
327,5,40113.160,40116.000,20.000,0,0,0.000,11.341,0.080,9.589,0.013,0.031,0.072,0.089,-0.414,9.579,10.000,62.000,43.000,158.835,208.096,0,0,0,0,0,0,0,0
328,5,40133.148,40136.000,20.000,0,0,0.000,11.341,0.076,9.627,0.010,0.027,0.070,0.108,-0.362,9.620,11.000,62.000,120.000,-57.296,208.096,0,0,0,0,0,0,0,0
329,5,40153.160,40156.000,20.000,0,0,0.000,11.341,0.070,9.662,0.001,0.027,0.064,0.086,-0.409,9.653,12.000,62.000,64.000,-178.055,207.573,0,0,0,0,0,0,0,0
330,5,40173.164,40176.000,20.000,0,0,0.000,11.341,0.068,9.694,-0.001,0.025,0.063,0.117,-0.362,9.687,12.000,61.000,120.000,-57.296,207.573,0,0,0,0,0,0,0,0
331,5,40188.137,40193.000,17.000,0,0,0.000,11.341,0.061,9.641,-0.005,0.027,0.054,0.077,-0.474,9.629,12.000,61.000,120.000,-57.296,207.573,0,0,0,0,0,0,0,0
332,5,40213.152,40216.000,23.000,0,0,0.000,11.341,0.056,9.606,0.010,0.026,0.048,0.077,-0.443,9.596,9.000,62.000,120.000,-57.296,206.366,0,0,0,0,0,0,0,0
333,5,40233.160,40236.000,20.000,0,0,0.000,11.341,0.052,9.604,0.002,0.031,0.042,0.089,-0.443,9.594,10.000,58.000,120.000,-57.296,206.366,0,0,0,0,0,0,0,0
334,5,40253.160,40256.000,20.000,0,0,0.000,11.341,0.050,9.612,0.013,0.032,0.036,0.072,-0.450,9.601,9.000,63.000,120.000,-57.296,206.366,0,0,0,0,0,0,0,0
335,5,40273.160,40276.000,20.000,0,0,0.000,11.341,0.048,9.634,0.014,0.022,0.041,0.029,-0.433,9.625,11.000,61.000,120.000,-57.296,206.366,0,0,0,0,0,0,0,0
336,5,40293.148,40296.000,20.000,0,0,0.000,11.341,0.062,9.620,0.030,0.015,0.052,0.041,-0.529,9.606,11.000,60.000,120.000,-57.296,206.366,0,0,0,0,0,0,0,0
337,5,40313.160,40316.000,20.000,0,0,0.000,11.341,0.074,9.594,0.038,0.012,0.062,0.134,-0.469,9.582,11.000,59.000,120.000,-57.296,206.366,0,0,0,0,0,0,0,0
338,5,40333.160,40336.000,20.000,0,0,0.000,11.341,0.079,9.591,0.048,0.012,0.062,0.089,-0.469,9.579,9.000,60.000,120.000,-57.296,206.366,0,0,0,0,0,0,0,0
339,5,40353.160,40356.000,20.000,0,0,0.000,11.341,0.078,9.575,0.050,0.009,0.060,-0.012,-0.376,9.567,10.000,60.000,120.000,-57.296,206.366,0,0,0,0,0,0,0,0
340,5,40373.160,40376.000,20.000,0,0,0.000,11.341,0.059,9.684,0.036,0.005,0.046,0.017,-0.290,9.680,11.000,60.000,120.000,-57.296,206.366,0,0,0,0,0,0,0,0
341,5,40393.148,40396.000,20.000,0,0,0.000,11.341,0.037,9.624,0.023,0.007,0.028,0.036,-0.350,9.618,11.000,58.000,120.000,-57.296,206.366,0,0,0,0,0,0,0,0
342,5,40413.160,40416.000,20.000,0,0,0.000,11.341,0.023,9.696,0.007,0.009,0.019,0.048,-0.369,9.689,8.000,60.000,120.000,-57.296,206.366,0,0,0,0,0,0,0,0
343,5,40433.160,40436.000,20.000,0,0,0.000,11.341,0.016,9.674,0.006,0.009,0.012,0.084,-0.409,9.665,9.000,61.000,120.000,-57.296,206.366,0,0,0,0,0,0,0,0
344,5,40453.160,40456.000,20.000,0,0,0.000,11.341,0.014,9.602,-0.001,0.014,0.003,0.103,-0.328,9.596,10.000,61.000,106.000,-152.067,206.398,0,0,0,0,0,0,0,0
345,5,40473.148,40476.000,20.000,0,0,0.000,11.341,0.017,9.633,-0.003,0.016,0.004,0.101,-0.438,9.622,11.000,61.000,120.000,-57.296,206.398,0,0,0,0,0,0,0,0
346,5,40493.152,40496.000,20.000,0,0,0.000,11.341,0.026,9.633,-0.011,0.024,-0.002,0.103,-0.381,9.625,12.000,61.000,120.000,-57.296,206.398,0,0,0,0,0,0,0,0
347,5,40513.168,40516.000,20.000,0,0,0.000,11.341,0.026,9.623,0.002,0.025,0.004,0.103,-0.479,9.610,11.000,62.000,120.000,-57.296,206.398,0,0,0,0,0,0,0,0
348,5,40533.152,40536.000,20.000,0,0,0.000,11.341,0.032,9.657,0.005,0.032,0.000,0.144,-0.438,9.646,11.000,60.000,120.000,-57.296,206.398,0,0,0,0,0,0,0,0
349,5,40553.160,40556.000,20.000,0,0,0.000,11.341,0.036,9.622,0.014,0.032,0.009,0.038,-0.414,9.613,11.000,60.000,54.000,173.555,205.741,0,0,0,0,0,0,0,0
350,5,40573.164,40576.000,20.000,0,0,0.000,11.341,0.041,9.621,0.022,0.028,0.019,-0.029,-0.443,9.610,7.000,60.000,120.000,-57.296,205.741,0,0,0,0,0,0,0,0
351,5,40593.148,40596.000,20.000,0,0,0.000,11.341,0.033,9.537,0.012,0.019,0.025,0.084,-0.390,9.529,12.000,59.000,79.000,-163.098,205.564,0,0,0,0,0,0,0,0
352,5,40613.168,40616.000,20.000,0,0,0.000,11.341,0.043,9.550,0.023,0.016,0.032,0.089,-0.467,9.538,10.000,62.000,120.000,-57.296,205.564,0,0,0,0,0,0,0,0
353,5,40633.160,40636.000,20.000,0,0,0.000,11.341,0.040,9.551,0.022,0.006,0.033,-0.002,-0.484,9.538,9.000,59.000,120.000,-57.296,205.564,0,0,0,0,0,0,0,0
354,5,40653.160,40656.000,20.000,0,0,0.000,11.341,0.048,9.627,0.032,0.002,0.035,0.120,-0.362,9.620,11.000,60.000,120.000,-57.296,205.564,0,0,0,0,0,0,0,0
355,5,40673.160,40676.000,20.000,0,0,0.000,11.341,0.047,9.652,0.031,0.007,0.035,0.072,-0.402,9.644,9.000,59.000,40.000,157.889,204.611,0,0,0,0,0,0,0,0
356,5,40693.164,40696.000,20.000,0,0,0.000,11.341,0.042,9.587,0.033,0.010,0.024,0.081,-0.381,9.579,11.000,62.000,120.000,-57.296,204.611,0,0,0,0,0,0,0,0
357,5,40713.145,40716.000,20.000,0,0,0.000,11.341,0.031,9.613,0.028,0.005,0.013,0.029,-0.321,9.608,11.000,61.000,120.000,-57.296,204.611,0,0,0,0,0,0,0,0
358,5,40733.160,40736.000,20.000,0,0,0.000,11.341,0.023,9.623,0.022,0.001,0.004,0.069,-0.318,9.618,12.000,60.000,120.000,-57.296,204.611,0,0,0,0,0,0,0,0
359,5,40753.160,40756.000,20.000,0,0,0.000,11.341,0.013,9.617,0.011,0.006,0.003,0.074,-0.345,9.610,11.000,61.000,50.000,167.917,203.877,0,0,0,0,0,0,0,0
360,4,40773.156,40776.000,20.000,0,0,0.000,11.341,0.012,9.605,0.007,0.009,-0.001,0.103,-0.402,9.596,9.000,60.000,120.000,-57.296,203.877,0,0,0,0,0,4,0,0
361,4,40793.160,40796.000,20.000,0,0,0.000,11.341,0.013,9.710,0.010,0.009,-0.001,0.007,-0.407,9.701,9.000,62.000,120.000,-57.296,203.877,0,0,0,0,0,4,0,0
362,4,40813.168,40816.000,20.000,0,0,0.000,11.341,0.010,9.623,0.001,0.007,-0.006,0.089,-0.371,9.615,10.000,61.000,97.000,-155.685,203.885,0,0,0,0,0,4,0,0
363,4,40833.160,40836.000,20.000,0,0,0.000,11.341,0.001,9.596,0.001,-0.000,0.000,0.055,-0.417,9.586,10.000,63.000,120.000,-57.296,203.885,0,0,0,0,0,4,0,0
364,4,40853.160,40856.000,20.000,0,0,0.000,11.341,0.012,9.568,0.009,-0.000,0.009,0.079,-0.393,9.560,11.000,60.000,64.000,-176.114,203.485,0,0,0,0,0,4,0,0
365,4,40873.164,40876.000,20.000,0,0,0.000,11.341,0.016,9.653,0.009,-0.002,0.013,0.124,-0.342,9.646,11.000,62.000,120.000,-57.296,203.485,0,0,0,0,0,4,0,0
366,4,40893.160,40896.000,20.000,0,0,0.000,11.341,0.018,9.621,0.003,0.009,0.015,0.124,-0.429,9.610,9.000,60.000,120.000,-57.296,203.485,0,0,0,0,0,4,0,0
367,4,40913.168,40916.000,20.000,0,0,0.000,11.341,0.028,9.632,0.005,0.010,0.026,0.129,-0.414,9.622,10.000,63.000,120.000,-57.296,203.485,0,0,0,0,0,4,0,0
368,4,40933.156,40936.000,20.000,0,0,0.000,11.341,0.039,9.583,0.019,0.011,0.032,0.060,-0.457,9.572,7.000,60.000,120.000,-57.296,203.485,0,0,0,0,0,4,0,0
369,4,40953.176,40956.000,20.000,0,0,0.000,11.341,0.047,9.646,0.029,0.008,0.036,0.160,-0.393,9.637,12.000,59.000,120.000,-57.296,203.485,0,0,0,0,0,4,0,0
370,4,40973.148,40976.000,20.000,0,0,0.000,11.341,0.046,9.605,0.026,0.009,0.037,0.134,-0.400,9.596,8.000,60.000,120.000,-57.296,203.485,0,0,0,0,0,4,0,0
371,4,40993.152,40996.000,20.000,0,0,0.000,11.341,0.056,9.571,0.035,0.011,0.042,0.132,-0.433,9.560,9.000,62.000,120.000,-57.296,203.485,0,0,0,0,0,4,0,0
372,4,41013.156,41016.000,20.000,0,0,0.000,11.341,0.056,9.604,0.033,0.006,0.045,0.115,-0.369,9.596,13.000,61.000,120.000,-57.296,203.485,0,0,0,0,0,4,0,0
373,4,41033.168,41036.000,20.000,0,0,0.000,11.341,0.060,9.627,0.034,0.009,0.048,0.065,-0.352,9.620,11.000,61.000,71.000,-171.052,203.195,0,0,0,0,0,4,0,0
374,4,41053.164,41056.000,20.000,0,0,0.000,11.341,0.047,9.648,0.022,0.008,0.041,0.124,-0.323,9.641,11.000,60.000,120.000,-57.296,203.195,0,0,0,0,0,4,0,0
375,4,41073.176,41076.000,20.000,0,0,0.000,11.341,0.042,9.602,0.017,0.006,0.037,0.053,-0.333,9.596,12.000,61.000,120.000,-57.296,203.195,0,0,0,0,0,4,0,0
376,4,41093.160,41096.000,20.000,0,0,0.000,11.341,0.029,9.589,0.009,0.004,0.028,0.124,-0.280,9.584,10.000,60.000,120.000,-57.296,203.195,0,0,0,0,0,4,0,0
377,4,41113.152,41116.000,20.000,0,0,0.000,11.341,0.020,9.594,0.000,0.012,0.016,0.079,-0.364,9.586,12.000,63.000,120.000,-57.296,203.195,0,0,0,0,0,4,0,0
378,4,41133.160,41136.000,20.000,0,0,0.000,11.341,0.026,9.609,-0.006,0.024,0.009,0.129,-0.314,9.603,10.000,61.000,120.000,-57.296,203.195,0,0,0,0,0,4,0,0
379,4,41153.160,41156.000,20.000,0,0,0.000,11.341,0.037,9.555,-0.011,0.035,0.004,0.156,-0.400,9.546,9.000,60.000,120.000,-57.296,203.195,0,0,0,0,0,4,0,0
380,4,41173.164,41176.000,20.000,0,0,0.000,11.341,0.043,9.694,-0.004,0.041,0.013,0.103,-0.409,9.685,10.000,58.000,120.000,-57.296,203.195,0,0,0,0,0,4,0,0
381,4,41193.176,41196.000,20.000,0,0,0.000,11.341,0.044,9.573,-0.004,0.036,0.026,0.041,-0.457,9.562,11.000,62.000,120.000,-57.296,203.195,0,0,0,0,0,4,0,0
382,4,41208.137,41215.000,19.000,0,0,0.000,11.341,0.047,9.548,0.005,0.019,0.043,0.022,-0.520,9.534,12.000,62.000,0.000,-57.296,203.195,0,0,0,0,0,4,0,0
383,4,41233.168,41236.000,21.000,0,0,0.000,11.341,0.066,9.586,0.024,0.005,0.061,0.084,-0.464,9.574,12.000,60.000,120.000,-57.296,203.195,0,0,0,0,0,4,0,0
384,4,41253.160,41256.000,20.000,0,0,0.000,11.341,0.086,9.626,0.043,0.004,0.075,0.115,-0.445,9.615,9.000,60.000,120.000,-57.296,203.195,0,0,0,0,0,4,0,0
385,4,41273.160,41276.000,20.000,0,0,0.000,11.341,0.082,9.662,0.044,0.004,0.069,0.093,-0.345,9.656,11.000,61.000,120.000,-57.296,203.195,0,0,0,0,0,4,0,0
386,4,41293.168,41296.000,20.000,0,0,0.000,11.341,0.076,9.696,0.035,0.010,0.067,0.120,-0.244,9.692,10.000,60.000,120.000,-57.296,203.195,0,0,0,0,0,4,0,0
387,4,41313.156,41316.000,20.000,0,0,0.000,11.341,0.070,9.577,0.021,0.012,0.065,0.113,-0.366,9.570,10.000,60.000,120.000,-57.296,203.195,0,0,0,0,0,4,0,0
388,4,41333.152,41336.000,20.000,0,0,0.000,11.341,0.067,9.652,0.024,0.011,0.062,0.074,-0.383,9.644,10.000,61.000,120.000,-57.296,203.195,0,0,0,0,0,4,0,0
389,4,41353.148,41356.000,20.000,0,0,0.000,11.341,0.063,9.637,0.022,0.002,0.059,0.010,-0.299,9.632,10.000,61.000,113.000,-149.679,203.337,0,0,0,0,0,4,0,0
390,4,41373.164,41376.000,20.000,0,0,0.000,11.341,0.051,9.629,0.021,-0.001,0.046,0.077,-0.263,9.625,10.000,62.000,120.000,-57.296,203.337,0,0,0,0,0,4,0,0
391,4,41393.160,41396.000,20.000,0,0,0.000,11.341,0.031,9.685,0.003,0.001,0.031,0.113,-0.204,9.682,11.000,62.000,108.000,-151.705,203.436,0,0,0,0,0,4,0,0
392,4,41413.168,41416.000,20.000,0,0,0.000,11.341,0.020,9.664,-0.011,0.004,0.016,0.091,-0.321,9.658,9.000,61.000,120.000,-57.296,203.436,0,0,0,0,0,4,0,0
393,4,41433.156,41436.000,20.000,0,0,0.000,11.341,0.010,9.619,-0.009,0.003,0.004,0.055,-0.338,9.613,9.000,60.000,120.000,-57.296,203.436,0,0,0,0,0,4,0,0
394,4,41453.160,41456.000,20.000,0,0,0.000,11.341,0.012,9.691,-0.011,-0.002,-0.004,0.098,-0.278,9.687,12.000,62.000,120.000,-57.296,203.436,0,0,0,0,0,4,0,0
395,4,41473.148,41476.000,20.000,0,0,0.000,11.341,0.016,9.618,-0.014,-0.005,-0.006,0.139,-0.292,9.613,10.000,61.000,120.000,-57.296,203.436,0,0,0,0,0,4,0,0
396,4,41493.152,41496.000,20.000,0,0,0.000,11.341,0.019,9.585,-0.013,-0.000,-0.014,0.060,-0.314,9.579,12.000,61.000,120.000,-57.296,203.436,0,0,0,0,0,4,0,0
397,4,41513.152,41516.000,20.000,0,0,0.000,11.341,0.033,9.685,-0.026,-0.005,-0.021,0.101,-0.302,9.680,10.000,60.000,57.000,176.934,202.906,0,0,0,0,0,4,0,0
398,4,41533.176,41536.000,20.000,0,0,0.000,11.341,0.049,9.590,-0.040,0.003,-0.028,0.180,-0.290,9.584,8.000,61.000,120.000,-57.296,202.906,0,0,0,0,0,4,0,0
399,4,41553.176,41556.000,20.000,0,0,0.000,11.341,0.061,9.655,-0.050,0.016,-0.032,0.184,-0.364,9.646,10.000,62.000,42.000,157.589,202.000,0,0,0,0,0,4,0,0
400,4,41573.164,41576.000,20.000,0,0,0.000,11.341,0.068,9.615,-0.059,0.017,-0.031,0.101,-0.405,9.606,10.000,62.000,120.000,-57.296,202.000,0,0,0,0,0,4,0,0
401,4,41588.137,41595.000,19.000,0,0,0.000,11.341,0.062,9.616,-0.053,0.005,-0.032,0.101,-0.385,9.608,10.000,63.000,102.000,-155.021,202.000,0,0,0,0,0,4,0,0
402,4,41613.156,41616.000,21.000,0,0,0.000,11.341,0.054,9.638,-0.040,0.019,-0.030,0.180,-0.431,9.627,9.000,61.000,120.000,-57.296,202.060,0,0,0,0,0,4,0,0
403,4,41633.148,41636.000,20.000,0,0,0.000,11.341,0.058,9.635,-0.040,0.030,-0.029,0.215,-0.500,9.620,12.000,61.000,120.000,-57.296,202.060,0,0,0,0,0,4,0,0
404,4,41653.164,41656.000,20.000,0,0,0.000,11.341,0.050,9.586,-0.027,0.037,-0.020,0.177,-0.488,9.572,9.000,63.000,120.000,-57.296,202.060,0,0,0,0,0,4,0,0
405,4,41673.176,41676.000,20.000,0,0,0.000,11.341,0.040,9.578,-0.015,0.037,-0.004,0.170,-0.520,9.562,10.000,63.000,120.000,-57.296,202.060,0,0,0,0,0,4,0,0
406,4,41693.160,41696.000,20.000,0,0,0.000,11.341,0.039,9.624,-0.016,0.034,0.011,0.172,-0.474,9.610,10.000,62.000,120.000,-57.296,202.060,0,0,0,0,0,4,0,0
407,4,41713.148,41716.000,20.000,0,0,0.000,11.341,0.056,9.635,-0.016,0.041,0.034,0.177,-0.462,9.622,9.000,58.000,120.000,-57.296,202.060,0,0,0,0,0,4,0,0
408,4,41733.156,41736.000,20.000,0,0,0.000,11.341,0.070,9.596,-0.013,0.048,0.050,0.170,-0.488,9.582,10.000,63.000,120.000,-57.296,202.060,0,0,0,0,0,4,0,0
409,4,41753.160,41756.000,20.000,0,0,0.000,11.341,0.086,9.620,-0.007,0.045,0.072,0.113,-0.508,9.606,11.000,61.000,120.000,-57.296,202.060,0,0,0,0,0,4,0,0
410,4,41773.160,41776.000,20.000,0,0,0.000,11.341,0.101,9.535,-0.001,0.042,0.092,0.098,-0.500,9.522,11.000,62.000,73.000,-170.430,201.810,0,0,0,0,0,4,0,0
411,4,41793.176,41796.000,20.000,0,0,0.000,11.341,0.114,9.573,0.003,0.035,0.109,0.074,-0.493,9.560,9.000,62.000,120.000,-57.296,201.810,0,0,0,0,0,4,0,0
412,4,41813.160,41816.000,20.000,0,0,0.000,11.341,0.128,9.565,0.026,0.026,0.122,0.050,-0.567,9.548,10.000,59.000,120.000,-57.296,201.810,0,0,0,0,0,4,0,0
413,4,41833.168,41836.000,20.000,0,0,0.000,11.341,0.142,9.597,0.035,0.007,0.137,0.060,-0.532,9.582,10.000,61.000,120.000,-57.296,201.810,0,0,0,0,0,4,0,0
414,4,41853.160,41856.000,20.000,0,0,0.000,11.341,0.145,9.578,0.053,0.001,0.135,0.053,-0.548,9.562,12.000,62.000,120.000,-57.296,201.810,0,0,0,0,0,4,0,0
415,4,41873.160,41876.000,20.000,0,0,0.000,11.341,0.135,9.596,0.063,-0.005,0.119,0.010,-0.421,9.586,11.000,60.000,120.000,-57.296,201.810,0,0,0,0,0,4,0,0
416,4,41893.168,41896.000,20.000,0,0,0.000,11.341,0.104,9.708,0.051,-0.002,0.091,0.050,-0.273,9.704,12.000,60.000,120.000,-57.296,201.810,0,0,0,0,0,4,0,0
417,4,41913.176,41916.000,20.000,0,0,0.000,11.341,0.066,9.658,0.023,0.014,0.060,0.115,-0.263,9.653,11.000,60.000,120.000,-57.296,201.810,0,0,0,0,0,4,0,0
418,4,41928.137,41935.000,19.000,0,0,0.000,11.341,0.050,9.687,0.012,0.031,0.038,0.103,-0.285,9.682,11.000,61.000,120.000,-57.296,201.810,0,0,0,0,0,4,0,0
419,4,41953.152,41956.000,21.000,0,0,0.000,11.341,0.061,9.635,-0.012,0.059,-0.009,0.115,-0.383,9.627,9.000,62.000,120.000,-57.296,201.810,0,0,0,0,0,4,0,0
420,4,41973.168,41976.000,20.000,0,0,0.000,11.341,0.079,9.635,-0.010,0.073,-0.028,0.084,-0.383,9.627,12.000,61.000,120.000,-57.296,201.810,0,0,0,0,0,4,0,0
421,4,41993.160,41996.000,20.000,0,0,0.000,11.341,0.090,9.612,-0.023,0.075,-0.044,0.026,-0.407,9.603,12.000,61.000,120.000,-57.296,201.810,0,0,0,0,0,4,0,0
422,4,42013.168,42016.000,20.000,0,0,0.000,11.341,0.084,9.542,-0.026,0.070,-0.038,0.014,-0.455,9.531,10.000,58.000,32.000,147.245,200.719,0,0,0,0,0,4,0,0
423,4,42033.156,42036.000,20.000,0,0,0.000,11.341,0.052,9.508,0.000,0.043,-0.029,-0.077,-0.603,9.488,10.000,61.000,85.000,-161.742,200.669,0,0,0,0,0,4,0,0
424,4,42053.152,42056.000,20.000,0,0,0.000,11.341,0.026,9.550,0.020,0.007,-0.015,-0.060,-0.558,9.534,9.000,60.000,71.000,-170.430,200.447,0,0,0,0,0,4,0,0
425,4,42073.148,42076.000,20.000,0,0,0.000,11.341,0.037,9.527,0.033,-0.015,-0.006,-0.019,-0.527,9.512,11.000,62.000,81.000,-164.785,200.343,0,0,0,0,0,4,0,0
426,4,42093.160,42096.000,20.000,0,0,0.000,11.341,0.046,9.674,0.037,-0.027,0.001,0.101,-0.453,9.663,10.000,61.000,120.000,-57.296,200.343,0,0,0,0,0,4,0,0
427,4,42113.168,42116.000,20.000,0,0,0.000,11.341,0.030,9.702,0.024,-0.016,0.003,0.103,-0.376,9.694,8.000,59.000,120.000,-57.296,200.343,0,0,0,0,0,4,0,0
428,4,42133.148,42136.000,20.000,0,0,0.000,11.341,0.020,9.633,0.009,-0.016,0.009,0.062,-0.397,9.625,10.000,60.000,120.000,-57.296,200.343,0,0,0,0,0,4,0,0
429,4,42153.156,42156.000,20.000,0,0,0.000,11.341,0.022,9.571,0.001,-0.022,0.005,0.045,-0.400,9.562,11.000,61.000,120.000,-57.296,200.343,0,0,0,0,0,4,0,0
430,4,42173.160,42176.000,20.000,0,0,0.000,11.341,0.029,9.638,-0.002,-0.027,0.012,0.069,-0.402,9.629,12.000,64.000,120.000,-57.296,200.343,0,0,0,0,0,4,0,0
431,4,42193.152,42196.000,20.000,0,0,0.000,11.341,0.031,9.706,-0.010,-0.029,0.008,0.110,-0.417,9.697,9.000,61.000,55.000,173.947,199.815,0,0,0,0,0,4,0,0
432,4,42213.145,42216.000,20.000,0,0,0.000,11.341,0.014,9.622,-0.012,-0.008,0.002,0.172,-0.484,9.608,12.000,62.000,120.000,-57.296,199.815,0,0,0,0,0,4,0,0
433,4,42233.152,42236.000,20.000,0,0,0.000,11.341,0.008,9.615,0.002,0.007,-0.002,0.151,-0.587,9.596,12.000,61.000,120.000,-57.296,199.815,0,0,0,0,0,4,0,0
434,4,42253.168,42256.000,20.000,0,0,0.000,11.341,0.037,9.579,0.029,0.022,-0.005,0.108,-0.594,9.560,9.000,62.000,120.000,-57.296,199.815,0,0,0,0,0,4,0,0
435,4,42273.176,42276.000,20.000,0,0,0.000,11.341,0.047,9.455,0.044,0.016,0.004,0.053,-0.517,9.440,12.000,62.000,120.000,-57.296,199.815,0,0,0,0,0,4,0,0
436,4,42293.160,42296.000,20.000,0,0,0.000,11.341,0.062,9.567,0.062,0.001,0.010,0.072,-0.472,9.555,9.000,62.000,120.000,-57.296,199.815,0,0,0,0,0,4,0,0
437,4,42313.160,42316.000,20.000,0,0,0.000,11.341,0.066,9.632,0.065,-0.006,0.010,0.096,-0.424,9.622,11.000,61.000,120.000,-57.296,199.815,0,0,0,0,0,4,0,0
438,4,42333.156,42336.000,20.000,0,0,0.000,11.341,0.053,9.658,0.053,0.001,0.000,0.098,-0.283,9.653,8.000,60.000,120.000,-57.296,199.815,0,0,0,0,0,4,0,0
439,4,42353.168,42356.000,20.000,0,0,0.000,11.341,0.026,9.731,0.026,0.001,-0.002,0.105,-0.304,9.725,11.000,63.000,120.000,-57.296,199.815,0,0,0,0,0,4,0,0
440,4,42373.152,42376.000,20.000,0,0,0.000,11.341,0.014,9.693,0.011,-0.008,-0.004,0.045,-0.345,9.687,12.000,60.000,120.000,-57.296,199.815,0,0,0,0,0,4,0,0
441,4,42393.176,42396.000,20.000,0,0,0.000,11.341,0.014,9.628,0.000,-0.013,0.004,0.041,-0.333,9.622,11.000,61.000,120.000,-57.296,199.815,0,0,0,0,0,4,0,0
442,4,42413.148,42416.000,20.000,0,0,0.000,11.341,0.026,9.603,-0.003,-0.026,0.004,0.077,-0.472,9.591,8.000,60.000,120.000,-57.296,199.815,0,0,0,0,0,4,0,0
443,4,42433.160,42436.000,20.000,0,0,0.000,11.341,0.048,9.547,0.015,-0.046,0.002,0.060,-0.453,9.536,12.000,62.000,120.000,-57.296,199.815,0,0,0,0,0,4,0,0
444,4,42453.156,42456.000,20.000,0,0,0.000,11.341,0.060,9.570,0.020,-0.055,-0.014,0.017,-0.378,9.562,13.000,61.000,120.000,-57.296,199.815,0,0,0,0,0,4,0,0
445,4,42473.148,42476.000,20.000,0,0,0.000,11.341,0.076,9.689,0.023,-0.057,-0.045,0.163,-0.321,9.682,11.000,64.000,120.000,-57.296,199.815,0,0,0,0,0,4,0,0
446,4,42493.160,42496.000,20.000,0,0,0.000,11.341,0.083,9.668,0.002,-0.025,-0.080,0.160,-0.256,9.663,9.000,64.000,120.000,-57.296,199.815,0,0,0,0,0,4,0,0
447,4,42513.156,42516.000,20.000,0,0,0.000,11.341,0.119,9.705,-0.027,-0.016,-0.115,0.168,-0.220,9.701,11.000,60.000,120.000,-57.296,199.815,0,0,0,0,0,4,0,0
448,4,42533.152,42536.000,20.000,0,0,0.000,11.341,0.159,9.633,-0.052,0.002,-0.150,0.242,-0.225,9.627,9.000,63.000,120.000,-57.296,199.815,0,0,0,0,0,4,0,0
449,4,42553.168,42556.000,20.000,0,0,0.000,11.150,0.196,9.759,-0.080,0.002,-0.179,0.108,-0.218,9.756,10.000,63.000,120.000,-57.296,199.624,0,0,0,0,0,4,0,0
450,4,42573.176,42576.000,20.000,0,0,0.000,10.929,0.245,9.764,-0.135,0.002,-0.204,0.211,-0.098,9.761,10.000,66.000,120.000,-57.296,199.403,0,0,0,0,0,4,0,0
451,4,42593.152,42596.000,20.000,0,0,0.000,10.680,0.291,9.784,-0.183,0.006,-0.227,0.153,-0.239,9.780,13.000,65.000,120.000,-57.296,199.153,0,0,0,0,0,4,0,0
452,4,42613.168,42616.000,20.000,0,0,0.000,10.408,0.336,9.692,-0.232,-0.008,-0.244,0.093,-0.306,9.687,9.000,66.000,120.000,-57.296,198.881,0,0,0,0,0,4,0,0
453,4,42633.176,42636.000,20.000,0,0,0.000,10.122,0.352,9.521,-0.241,-0.028,-0.255,0.010,-0.704,9.495,12.000,68.000,120.000,-57.296,198.596,0,0,0,0,0,4,0,0
454,4,42653.168,42656.000,20.000,0,0,0.000,9.832,0.329,9.544,-0.208,-0.048,-0.251,-0.012,-0.802,9.510,10.000,64.000,120.000,-57.296,198.306,0,0,0,0,0,4,0,0
455,4,42673.152,42676.000,20.000,0,0,0.000,9.541,0.313,9.531,-0.164,-0.072,-0.257,0.220,-0.816,9.493,11.000,66.000,120.000,-57.296,198.015,0,0,0,0,0,4,0,0
456,4,42693.156,42696.000,20.000,0,0,0.000,9.246,0.294,9.553,-0.128,-0.067,-0.256,0.318,-0.819,9.512,10.000,69.000,120.000,-57.296,197.720,0,0,0,0,0,4,0,0
457,4,42713.164,42716.000,20.000,0,0,0.000,8.954,0.279,9.495,-0.095,-0.065,-0.254,0.340,-0.888,9.448,12.000,69.000,120.000,-57.296,197.428,0,0,0,0,0,4,0,0
458,4,42733.148,42736.000,20.000,0,0,0.000,8.662,0.270,9.557,-0.074,-0.046,-0.255,0.472,-0.931,9.500,11.000,70.000,120.000,-57.296,197.136,0,0,0,0,0,4,0,0
459,4,42753.156,42758.000,22.000,0,0,0.000,8.376,0.249,9.571,-0.024,-0.006,-0.248,0.599,-0.946,9.505,11.000,73.000,120.000,-57.296,196.850,0,0,0,0,0,4,0,0
460,4,42773.148,42776.000,18.000,0,0,0.000,8.102,0.236,9.642,0.007,0.043,-0.232,0.661,-0.924,9.574,11.000,73.000,120.000,-57.296,196.576,0,0,0,0,0,4,0,0
461,4,42793.160,42796.000,20.000,0,0,0.000,7.850,0.226,9.623,0.029,0.084,-0.207,0.522,-0.864,9.570,13.000,77.000,120.000,-57.296,196.324,0,0,0,0,0,4,0,0
462,4,42813.176,42816.000,20.000,0,0,0.000,7.635,0.199,9.527,0.061,0.085,-0.169,0.318,-0.929,9.476,12.000,77.000,120.000,-57.296,196.109,0,0,0,0,0,4,0,0
463,4,42833.160,42836.000,20.000,0,0,0.000,7.545,0.173,9.541,0.098,0.069,-0.125,0.359,-0.931,9.488,16.000,76.000,120.000,-57.296,196.018,0,0,0,0,0,4,0,0
464,4,42853.148,42857.000,21.000,0,0,0.000,7.545,0.156,9.619,0.116,0.076,-0.070,0.486,-0.814,9.572,11.000,77.000,120.000,-57.296,196.018,0,0,0,0,0,4,0,0
465,4,42873.176,42876.000,19.000,0,0,0.000,7.545,0.160,9.619,0.125,0.097,-0.025,0.464,-0.742,9.579,13.000,78.000,120.000,-57.296,196.018,0,0,0,0,0,4,0,0
466,4,42893.160,42896.000,20.000,0,0,0.000,7.545,0.168,9.584,0.125,0.108,0.031,0.464,-0.754,9.543,13.000,79.000,120.000,-57.296,196.018,0,0,0,0,0,4,0,0
467,4,42913.148,42916.000,20.000,0,0,0.000,7.545,0.204,9.589,0.143,0.120,0.083,0.311,-0.800,9.550,14.000,82.000,120.000,-57.296,196.018,0,0,0,0,0,4,0,0
468,4,42933.176,42936.000,20.000,0,0,0.000,7.545,0.226,9.605,0.147,0.104,0.136,0.362,-0.634,9.577,11.000,75.000,120.000,-57.296,196.018,0,0,0,0,0,4,0,0
469,4,42948.137,42955.000,19.000,0,0,0.000,7.636,0.239,9.643,0.134,0.103,0.169,0.338,-0.443,9.627,12.000,75.000,120.000,-57.296,196.110,0,0,0,0,0,4,0,0
470,4,42973.152,42976.000,21.000,0,0,0.000,7.926,0.269,9.718,0.121,0.084,0.225,0.237,-0.479,9.704,13.000,73.000,120.000,-57.296,196.400,0,0,0,0,0,4,0,0
471,4,42988.137,42993.000,17.000,0,0,0.000,8.137,0.288,9.633,0.112,0.077,0.254,0.148,-0.419,9.622,13.000,73.000,120.000,-57.296,196.611,0,0,0,0,0,4,0,0
472,4,43013.160,43016.000,23.000,0,0,0.000,8.539,0.320,9.625,0.089,0.059,0.301,0.163,-0.453,9.613,11.000,76.000,120.000,-57.296,197.013,0,0,0,0,0,4,0,0
473,4,43033.152,43036.000,20.000,0,0,0.000,8.892,0.322,9.638,0.069,0.048,0.311,0.180,-0.414,9.627,11.000,74.000,120.000,-57.296,197.366,0,0,0,0,0,4,0,0
474,4,43048.137,43055.000,19.000,0,0,0.000,9.162,0.325,9.677,0.065,0.039,0.316,0.113,-0.510,9.663,11.000,71.000,120.000,-57.296,197.636,0,0,0,0,0,4,0,0
475,4,43073.164,43076.000,21.000,0,0,0.000,9.613,0.319,9.640,0.081,0.039,0.307,0.134,-0.524,9.625,12.000,69.000,120.000,-57.296,198.087,0,0,0,0,0,4,0,0
476,4,43093.152,43096.000,20.000,0,0,0.000,9.958,0.311,9.610,0.088,0.053,0.294,0.127,-0.548,9.594,11.000,69.000,120.000,-57.296,198.432,0,0,0,0,0,4,0,0
477,4,43113.176,43116.000,20.000,0,0,0.000,10.271,0.286,9.486,0.104,0.058,0.260,0.060,-0.515,9.471,11.000,69.000,120.000,-57.296,198.744,0,0,0,0,0,4,0,0
478,4,43133.148,43136.000,20.000,0,0,0.000,10.549,0.266,9.521,0.126,0.054,0.228,-0.089,-0.577,9.503,10.000,68.000,120.000,-57.296,199.023,0,0,0,0,0,4,0,0
479,4,43153.152,43156.000,20.000,0,0,0.000,10.787,0.255,9.450,0.168,0.027,0.190,-0.175,-0.646,9.426,12.000,68.000,120.000,-57.296,199.261,0,0,0,0,0,4,0,0
480,4,43173.156,43176.000,20.000,0,0,0.000,10.937,0.239,9.624,0.186,0.008,0.149,-0.175,-0.208,9.620,12.000,65.000,120.000,-57.296,199.411,0,0,0,0,0,4,0,0
481,4,43193.160,43196.000,20.000,0,0,0.000,10.937,0.200,9.440,0.169,-0.019,0.105,-0.105,-0.266,9.436,10.000,67.000,120.000,-57.296,199.411,0,0,0,0,0,4,0,0
482,4,43213.164,43216.000,20.000,0,0,0.000,10.937,0.180,9.658,0.159,-0.064,0.057,-0.026,-0.213,9.656,12.000,61.000,120.000,-57.296,199.411,0,0,0,0,0,4,0,0
483,4,43233.176,43236.000,20.000,0,0,0.000,10.937,0.143,9.738,0.130,-0.060,0.006,0.010,-0.120,9.737,12.000,68.000,120.000,-57.296,199.411,0,0,0,0,0,4,0,0
484,4,43253.160,43256.000,20.000,0,0,0.000,10.937,0.144,9.546,0.126,-0.066,-0.026,-0.086,-0.208,9.543,12.000,64.000,120.000,-57.296,199.411,0,0,0,0,0,4,0,0
485,4,43273.168,43276.000,20.000,0,0,0.000,10.937,0.178,9.538,0.126,-0.114,-0.053,-0.153,-0.148,9.536,10.000,66.000,120.000,-57.296,199.411,0,0,0,0,0,4,0,0
486,4,43293.176,43296.000,20.000,0,0,0.000,10.937,0.222,9.598,0.099,-0.184,-0.073,-0.266,-0.079,9.594,10.000,65.000,120.000,-57.296,199.411,0,0,0,0,0,4,0,0
487,4,43313.152,43316.000,20.000,0,0,0.000,10.937,0.272,9.587,0.104,-0.232,-0.095,0.014,-0.232,9.584,11.000,65.000,120.000,-57.296,199.411,0,0,0,0,0,4,0,0
488,4,43333.160,43336.000,20.000,0,0,0.000,10.937,0.277,9.610,0.114,-0.221,-0.123,0.395,-0.139,9.601,10.000,68.000,120.000,-57.296,199.411,0,0,0,0,0,4,0,0
489,4,43353.156,43356.000,20.000,0,0,0.000,10.893,0.257,9.743,0.096,-0.182,-0.154,0.462,0.043,9.732,12.000,67.000,87.000,-165.079,199.278,0,0,0,0,0,4,0,0
490,4,43373.176,43376.000,20.000,0,0,0.000,10.702,0.225,9.868,0.028,-0.135,-0.178,0.486,0.290,9.852,12.000,64.000,120.000,-57.296,199.086,0,0,0,0,0,4,0,0
491,4,43393.160,43396.000,20.000,0,0,0.000,10.493,0.228,9.769,-0.026,-0.124,-0.189,0.335,0.038,9.764,12.000,66.000,120.000,-57.296,198.878,0,0,0,0,0,4,0,0
492,4,43413.176,43416.000,20.000,0,0,0.000,10.279,0.238,9.644,-0.062,-0.131,-0.188,0.378,0.050,9.637,13.000,69.000,120.000,-57.296,198.664,0,0,0,0,0,4,0,0
493,4,43433.160,43436.000,20.000,0,0,0.000,10.054,0.254,9.771,-0.099,-0.114,-0.204,0.565,0.081,9.754,12.000,71.000,120.000,-57.296,198.439,0,0,0,0,0,4,0,0
494,4,43453.148,43456.000,20.000,0,0,0.000,9.811,0.266,9.656,-0.118,-0.084,-0.222,0.567,-0.089,9.639,11.000,69.000,120.000,-57.296,198.195,0,0,0,0,0,4,0,0
495,4,43473.160,43476.000,20.000,0,0,0.000,9.541,0.274,9.626,-0.120,-0.036,-0.244,0.711,-0.151,9.598,13.000,73.000,120.000,-57.296,197.926,0,0,0,0,0,4,0,0
496,4,43493.148,43496.000,20.000,0,0,0.000,9.252,0.288,9.632,-0.126,0.025,-0.257,0.697,-0.182,9.606,11.000,76.000,120.000,-57.296,197.637,0,0,0,0,0,4,0,0
497,4,43513.160,43516.000,20.000,0,0,0.000,8.958,0.283,9.533,-0.118,0.043,-0.253,0.520,-0.280,9.515,11.000,77.000,120.000,-57.296,197.343,0,0,0,0,0,4,0,0
498,4,43533.176,43536.000,20.000,0,0,0.000,8.683,0.251,9.504,-0.097,0.034,-0.229,0.397,-0.486,9.483,11.000,78.000,120.000,-57.296,197.068,0,0,0,0,0,4,0,0
499,4,43553.160,43556.000,20.000,0,0,0.000,8.444,0.193,9.425,-0.033,0.001,-0.190,0.496,-0.735,9.383,15.000,82.000,120.000,-57.296,196.829,0,0,0,0,0,4,0,0
500,4,43573.148,43576.000,20.000,0,0,0.000,8.297,0.147,9.472,0.023,-0.015,-0.145,0.498,-0.558,9.443,10.000,76.000,120.000,-57.296,196.682,0,0,0,0,0,4,0,0
501,4,43593.176,43596.000,20.000,0,0,0.000,8.297,0.139,9.427,0.076,-0.050,-0.105,0.395,-0.606,9.400,14.000,81.000,120.000,-57.296,196.682,0,0,0,0,0,4,0,0
502,4,43613.160,43616.000,20.000,0,0,0.000,8.297,0.177,9.456,0.134,-0.086,-0.075,0.414,-0.515,9.433,12.000,80.000,120.000,-57.296,196.682,0,0,0,0,0,4,0,0
503,4,43633.148,43636.000,20.000,0,0,0.000,8.297,0.210,9.543,0.167,-0.113,-0.059,0.460,-0.385,9.524,12.000,82.000,120.000,-57.296,196.682,0,0,0,0,0,4,0,0
504,4,43653.176,43656.000,20.000,0,0,0.000,8.297,0.237,9.640,0.184,-0.133,-0.067,0.438,-0.122,9.629,10.000,84.000,120.000,-57.296,196.682,0,0,0,0,0,4,0,0
505,4,43673.152,43676.000,20.000,0,0,0.000,8.297,0.158,9.941,0.113,-0.082,-0.074,0.876,0.306,9.898,14.000,83.000,120.000,-57.296,196.682,0,0,0,0,0,4,0,0
506,4,43693.160,43696.000,20.000,0,0,0.000,8.297,0.105,9.733,0.052,-0.034,-0.085,0.809,-0.041,9.699,12.000,82.000,120.000,-57.296,196.682,0,0,0,0,0,4,0,0
507,4,43713.145,43716.000,20.000,0,0,0.000,8.297,0.095,9.624,0.055,-0.006,-0.077,0.725,-0.230,9.594,14.000,83.000,120.000,-57.296,196.682,0,0,0,0,0,4,0,0
508,4,43733.160,43736.000,20.000,0,0,0.000,8.297,0.083,9.571,0.061,-0.011,-0.056,0.553,-0.180,9.553,12.000,84.000,120.000,-57.296,196.682,0,0,0,0,0,4,0,0
509,4,43753.160,43756.000,20.000,0,0,0.000,8.297,0.077,9.654,0.065,-0.021,-0.035,0.675,-0.089,9.629,14.000,82.000,120.000,-57.296,196.682,0,0,0,0,0,4,0,0
510,4,43773.156,43776.000,20.000,0,0,0.000,8.297,0.054,9.706,0.043,0.006,-0.033,0.838,-0.019,9.670,13.000,83.000,120.000,-57.296,196.682,0,0,0,0,0,4,0,0
511,4,43793.164,43796.000,20.000,0,0,0.000,8.297,0.055,9.720,0.039,0.033,-0.021,0.754,-0.129,9.689,12.000,86.000,120.000,-57.296,196.682,0,0,0,0,0,4,0,0
512,4,43828.070,43845.000,49.000,0,0,0.000,8.297,0.070,9.700,-0.011,0.069,-0.009,0.505,0.050,9.687,15.000,80.000,120.000,-57.296,196.682,0,0,0,0,0,4,0,0
513,4,43868.152,43897.000,52.000,0,0,0.000,8.297,0.154,9.670,-0.130,0.059,0.058,0.594,-0.113,9.651,14.000,84.000,120.000,-57.296,196.682,0,0,0,0,0,4,0,0
514,4,43924.367,43925.000,28.000,0,0,0.000,8.297,0.158,9.402,-0.094,0.001,0.128,0.405,-0.529,9.378,14.000,86.000,120.000,-57.296,196.682,0,0,0,0,0,4,0,0
515,4,43924.367,43925.000,0.000,0,0,0.000,8.297,0.158,9.402,-0.094,0.001,0.128,0.405,-0.529,9.378,14.000,86.000,120.000,-57.296,196.682,0,0,0,0,0,4,0,0
516,4,43924.367,43925.000,0.000,0,0,0.000,8.297,0.158,9.402,-0.094,0.001,0.128,0.405,-0.529,9.378,14.000,86.000,120.000,-57.296,196.682,0,0,0,0,0,4,0,0
517,4,43924.367,43925.000,0.000,0,0,0.000,8.297,0.158,9.402,-0.094,0.001,0.128,0.405,-0.529,9.378,14.000,86.000,120.000,-57.296,196.682,0,0,0,0,0,4,0,0
518,4,43940.727,43942.000,17.000,0,0,0.000,8.416,0.181,9.577,-0.062,-0.043,0.165,0.431,-0.383,9.560,13.000,86.000,120.000,-57.296,196.801,0,0,0,0,0,4,0,0
519,4,43960.305,43961.000,19.000,0,0,0.000,8.611,0.196,9.556,-0.050,-0.062,0.179,0.563,-0.335,9.534,14.000,85.000,120.000,-57.296,196.996,0,0,0,0,0,4,0,0
520,4,43979.895,43981.000,20.000,0,0,0.000,8.807,0.184,9.563,-0.026,-0.052,0.175,0.690,-0.369,9.531,13.000,81.000,120.000,-57.296,197.192,0,0,0,0,0,4,0,0
521,4,43999.449,44000.000,19.000,0,0,0.000,8.984,0.154,9.634,-0.013,-0.026,0.151,0.723,-0.330,9.601,12.000,85.000,120.000,-57.296,197.369,0,0,0,0,0,4,0,0
522,4,44018.910,44020.000,20.000,0,0,0.000,8.984,0.133,9.576,0.010,0.008,0.132,0.742,-0.357,9.541,13.000,81.000,120.000,-57.296,197.369,0,0,0,0,0,4,0,0
523,4,44038.465,44038.000,18.000,0,0,0.000,8.984,0.123,9.670,0.029,0.048,0.110,0.745,-0.223,9.639,12.000,82.000,120.000,-57.296,197.369,0,0,0,0,0,4,0,0
524,4,44053.160,44058.000,20.000,0,0,0.000,8.984,0.128,9.699,0.023,0.086,0.092,0.637,-0.239,9.675,11.000,83.000,120.000,-57.296,197.369,0,0,0,0,0,4,0,0
525,4,44073.152,44078.000,20.000,0,0,0.000,8.984,0.114,9.537,0.027,0.078,0.078,0.474,-0.273,9.522,14.000,83.000,120.000,-57.296,197.369,0,0,0,0,0,4,0,0
526,4,44093.156,44098.000,20.000,0,0,0.000,8.984,0.092,9.546,0.024,0.065,0.061,0.503,-0.192,9.531,13.000,80.000,120.000,-57.296,197.369,0,0,0,0,0,4,0,0
527,4,44108.137,44116.000,18.000,0,0,0.000,8.984,0.087,9.690,0.016,0.066,0.055,0.512,-0.146,9.675,12.000,82.000,120.000,-57.296,197.369,0,0,0,0,0,4,0,0
528,4,44133.148,44136.000,20.000,0,0,0.000,8.984,0.071,9.585,-0.006,0.060,0.037,0.543,-0.215,9.567,13.000,81.000,120.000,-57.296,197.369,0,0,0,0,0,4,0,0
529,4,44148.137,44155.000,19.000,0,0,0.000,8.984,0.075,9.671,-0.015,0.060,0.042,0.529,-0.227,9.653,12.000,83.000,120.000,-57.296,197.369,0,0,0,0,0,4,0,0
530,4,44173.168,44177.000,22.000,0,0,0.000,8.984,0.055,9.541,-0.012,0.025,0.048,0.431,-0.290,9.527,12.000,83.000,120.000,-57.296,197.369,0,0,0,0,0,4,0,0
531,4,44193.168,44196.000,19.000,0,0,0.000,8.984,0.059,9.513,-0.007,0.012,0.058,0.385,-0.311,9.500,15.000,81.000,120.000,-57.296,197.369,0,0,0,0,0,4,0,0
532,4,44213.145,44217.000,21.000,0,0,0.000,8.984,0.064,9.555,0.015,-0.032,0.053,0.381,-0.345,9.541,13.000,80.000,120.000,-57.296,197.369,0,0,0,0,0,4,0,0
533,4,44233.160,44236.000,19.000,0,0,0.000,8.984,0.061,9.620,0.023,-0.030,0.048,0.510,-0.244,9.603,10.000,82.000,120.000,-57.296,197.369,0,0,0,0,0,4,0,0
534,4,44253.148,44256.000,20.000,0,0,0.000,8.984,0.056,9.625,0.027,-0.035,0.034,0.534,-0.357,9.603,12.000,80.000,120.000,-57.296,197.369,0,0,0,0,0,4,0,0
535,4,44273.176,44276.000,20.000,0,0,0.000,8.984,0.057,9.606,0.044,-0.026,0.027,0.646,-0.316,9.579,14.000,81.000,120.000,-57.296,197.369,0,0,0,0,0,4,0,0
536,4,44293.168,44296.000,20.000,0,0,0.000,8.984,0.068,9.658,0.054,-0.019,0.035,0.596,-0.328,9.634,12.000,80.000,120.000,-57.296,197.369,0,0,0,0,0,4,0,0
537,4,44313.152,44316.000,20.000,0,0,0.000,8.984,0.078,9.537,0.062,-0.023,0.042,0.515,-0.275,9.519,13.000,80.000,120.000,-57.296,197.369,0,0,0,0,0,4,0,0
538,4,44333.160,44336.000,20.000,0,0,0.000,8.984,0.094,9.526,0.068,-0.047,0.044,0.424,-0.273,9.512,11.000,83.000,120.000,-57.296,197.369,0,0,0,0,0,4,0,0
539,4,44353.168,44356.000,20.000,0,0,0.000,8.984,0.112,9.541,0.089,-0.059,0.033,0.618,-0.266,9.517,12.000,82.000,120.000,-57.296,197.369,0,0,0,0,0,4,0,0
540,4,44373.160,44376.000,20.000,0,0,0.000,8.984,0.095,9.758,0.087,-0.032,0.018,0.857,-0.069,9.720,12.000,79.000,120.000,-57.296,197.369,0,0,0,0,0,4,0,0
541,4,44393.160,44396.000,20.000,0,0,0.000,8.984,0.067,9.753,0.059,0.027,0.017,0.895,-0.093,9.711,13.000,80.000,120.000,-57.296,197.369,0,0,0,0,0,4,0,0
542,4,44413.160,44416.000,20.000,0,0,0.000,8.984,0.083,9.656,0.050,0.058,0.032,0.725,-0.160,9.627,11.000,79.000,120.000,-57.296,197.369,0,0,0,0,0,4,0,0
543,4,44433.152,44436.000,20.000,0,0,0.000,8.984,0.093,9.655,0.047,0.067,0.044,0.723,-0.136,9.627,13.000,81.000,120.000,-57.296,197.369,0,0,0,0,0,4,0,0
544,4,44453.176,44456.000,20.000,0,0,0.000,8.984,0.187,9.565,0.018,0.172,0.070,0.555,-0.146,9.548,11.000,84.000,120.000,-57.296,197.369,0,0,0,0,0,4,0,0
545,4,44473.148,44476.000,20.000,0,0,0.000,8.984,0.138,9.615,0.003,0.089,0.105,0.034,0.414,9.606,13.000,79.000,120.000,-57.296,197.369,0,0,0,0,0,4,0,0
546,4,44493.168,44496.000,20.000,0,0,0.000,8.984,0.142,9.539,0.039,0.019,0.135,1.355,-0.630,9.421,11.000,81.000,120.000,-57.296,197.369,0,0,0,0,0,4,0,0
547,4,44513.168,44516.000,20.000,0,0,0.000,9.028,0.171,9.485,0.049,0.053,0.155,-1.393,-0.448,9.371,12.000,79.000,120.000,-57.296,197.413,0,0,0,0,0,4,0,0
548,4,44533.168,44536.000,20.000,0,0,0.000,9.204,0.193,9.776,0.020,0.116,0.153,1.623,-0.338,9.634,9.000,79.000,120.000,-57.296,197.589,0,0,0,0,0,4,0,0
549,4,44553.160,44556.000,20.000,0,0,0.000,9.380,0.190,9.898,0.048,0.098,0.155,0.960,0.362,9.845,12.000,79.000,120.000,-57.296,197.765,0,0,0,0,0,4,0,0
550,4,44573.145,44576.000,20.000,0,0,0.000,9.571,0.198,9.317,0.082,0.051,0.173,-0.354,-0.553,9.294,13.000,77.000,120.000,-57.296,197.956,0,0,0,0,0,4,0,0
551,4,44593.148,44596.000,20.000,0,0,0.000,9.773,0.197,9.422,0.076,0.030,0.180,0.292,-0.385,9.409,13.000,77.000,120.000,-57.296,198.158,0,0,0,0,0,4,0,0
552,4,44613.148,44616.000,20.000,0,0,0.000,9.973,0.190,9.844,0.086,0.007,0.169,0.690,0.345,9.814,13.000,73.000,120.000,-57.296,198.358,0,0,0,0,0,4,0,0
553,4,44633.176,44636.000,20.000,0,0,0.000,10.155,0.165,9.618,0.062,-0.031,0.150,0.254,0.000,9.615,12.000,73.000,120.000,-57.296,198.540,0,0,0,0,0,4,0,0
554,4,44653.160,44656.000,20.000,0,0,0.000,10.155,0.136,9.501,0.031,-0.065,0.115,-0.012,-0.139,9.500,11.000,71.000,120.000,-57.296,198.540,0,0,0,0,0,4,0,0
555,4,44673.152,44676.000,20.000,0,0,0.000,10.155,0.115,9.725,0.013,-0.090,0.071,0.508,0.247,9.708,11.000,75.000,120.000,-57.296,198.540,0,0,0,0,0,4,0,0
556,4,44693.168,44696.000,20.000,0,0,0.000,10.155,0.116,9.679,-0.019,-0.111,0.029,0.359,0.069,9.673,13.000,74.000,120.000,-57.296,198.540,0,0,0,0,0,4,0,0
557,4,44713.145,44716.000,20.000,0,0,0.000,10.155,0.131,9.533,-0.027,-0.128,-0.004,0.565,-0.275,9.512,12.000,74.000,120.000,-57.296,198.540,0,0,0,0,0,4,0,0
558,4,44733.160,44736.000,20.000,0,0,0.000,10.155,0.125,9.512,0.040,-0.111,-0.041,0.340,-0.266,9.503,11.000,75.000,120.000,-57.296,198.540,0,0,0,0,0,4,0,0
559,4,44753.176,44756.000,20.000,0,0,0.000,10.155,0.164,9.536,0.040,-0.139,-0.078,0.532,-0.271,9.517,12.000,76.000,120.000,-57.296,198.540,0,0,0,0,0,4,0,0
560,4,44773.160,44776.000,20.000,0,0,0.000,10.155,0.276,10.059,0.050,-0.244,-0.118,0.637,0.757,10.010,11.000,73.000,120.000,-57.296,198.540,0,0,0,0,0,4,0,0
561,4,44793.148,44796.000,20.000,0,0,0.000,10.155,0.269,9.329,0.222,0.100,-0.113,0.500,-1.135,9.246,12.000,73.000,120.000,-57.296,198.540,0,0,0,0,0,4,0,0
562,4,44813.176,44816.000,20.000,0,0,0.000,10.155,0.115,10.138,-0.059,0.065,-0.074,1.956,0.304,9.943,9.000,75.000,120.000,-57.296,198.540,0,0,0,0,0,4,0,0
563,4,44833.160,44836.000,20.000,0,0,0.000,10.155,0.118,10.144,0.064,0.100,0.003,0.333,1.293,10.056,14.000,78.000,120.000,-57.296,198.540,0,0,0,0,0,4,0,0
564,4,44853.152,44856.000,20.000,0,0,0.000,10.155,0.109,9.249,0.053,0.072,0.063,1.111,-1.733,9.017,14.000,77.000,120.000,-57.296,198.540,0,0,0,0,0,4,0,0
565,4,44873.156,44876.000,20.000,0,0,0.000,10.155,0.142,9.892,-0.024,0.108,0.088,0.342,0.790,9.855,11.000,78.000,120.000,-57.296,198.540,0,0,0,0,0,4,0,0
566,4,44893.168,44896.000,20.000,0,0,0.000,10.155,0.228,9.871,0.049,0.187,0.121,1.389,0.187,9.771,12.000,77.000,120.000,-57.296,198.540,0,0,0,0,0,4,0,0
567,4,44913.168,44916.000,20.000,0,0,0.000,10.201,0.244,9.509,-0.033,0.183,0.158,0.934,-0.453,9.452,14.000,78.000,120.000,-57.296,198.586,0,0,0,0,0,4,0,0
568,4,44933.176,44936.000,20.000,0,0,0.000,10.405,0.291,9.650,0.003,0.214,0.197,0.005,0.146,9.649,11.000,75.000,120.000,-57.296,198.790,0,0,0,0,0,4,0,0
569,4,44953.160,44956.000,20.000,0,0,0.000,10.667,0.318,9.534,0.020,0.188,0.256,0.962,-0.347,9.479,14.000,77.000,120.000,-57.296,199.052,0,0,0,0,0,4,0,0
570,4,44973.148,44976.000,20.000,0,0,0.000,11.001,0.344,9.618,-0.014,0.127,0.319,0.292,0.148,9.613,12.000,77.000,120.000,-57.296,199.386,0,0,0,0,0,4,0,0
571,4,44988.137,44995.000,19.000,0,0,0.000,11.298,0.380,9.441,0.013,0.115,0.362,0.496,-0.476,9.416,14.000,73.000,120.000,-57.296,199.683,0,0,0,0,0,4,0,0
572,4,45013.148,45016.000,21.000,0,0,0.000,11.866,0.411,9.438,0.029,0.017,0.410,0.328,-0.395,9.424,11.000,69.000,120.000,-57.296,200.251,0,0,0,0,0,4,0,0
573,4,45033.152,45036.000,20.000,0,0,0.000,12.355,0.437,9.544,0.060,-0.031,0.432,0.213,0.079,9.541,11.000,66.000,120.000,-57.296,200.740,0,0,0,0,0,4,0,0
574,4,45053.160,45056.000,20.000,0,0,0.000,12.847,0.434,9.748,0.067,-0.038,0.427,0.663,0.041,9.725,15.000,69.000,120.000,-57.296,201.232,0,0,0,0,0,4,0,0
575,4,45073.168,45076.000,20.000,0,0,0.000,13.318,0.400,9.760,0.000,0.043,0.398,0.773,0.189,9.728,12.000,64.000,120.000,-57.296,201.703,0,0,0,0,0,4,0,0
576,4,45093.160,45096.000,20.000,0,0,0.000,13.738,0.357,9.754,-0.019,0.090,0.345,0.455,0.271,9.740,9.000,65.000,120.000,-57.296,202.123,0,0,0,0,0,4,0,0
577,4,45113.156,45116.000,20.000,0,0,0.000,14.076,0.282,9.630,-0.026,0.098,0.263,0.235,-0.024,9.627,14.000,63.000,120.000,-57.296,202.461,0,0,0,0,0,4,0,0
578,4,45133.168,45136.000,20.000,0,0,0.000,14.327,0.204,9.563,-0.030,0.086,0.183,0.101,-0.045,9.562,11.000,64.000,120.000,-57.296,202.712,0,0,0,0,0,4,0,0
579,4,45153.148,45156.000,20.000,0,0,0.000,14.375,0.172,9.776,-0.052,0.126,0.104,0.517,0.251,9.759,12.000,65.000,120.000,-57.296,202.760,0,0,0,0,0,4,0,0
580,4,45173.176,45176.000,20.000,0,0,0.000,14.375,0.176,9.721,-0.084,0.150,0.038,0.362,0.101,9.713,11.000,61.000,120.000,-57.296,202.760,0,0,0,0,0,4,0,0
581,4,45193.160,45196.000,20.000,0,0,0.000,14.375,0.170,9.607,-0.094,0.142,0.002,0.086,-0.146,9.606,9.000,63.000,120.000,-57.296,202.760,0,0,0,0,0,4,0,0
582,4,45213.145,45216.000,20.000,0,0,0.000,14.375,0.137,9.615,-0.080,0.110,0.011,0.177,-0.237,9.610,9.000,65.000,120.000,-57.296,202.760,0,0,0,0,0,4,0,0
583,4,45233.176,45236.000,20.000,0,0,0.000,14.375,0.144,9.649,-0.080,0.106,0.057,0.666,-0.266,9.622,11.000,62.000,120.000,-57.296,202.760,0,0,0,0,0,4,0,0
584,4,45253.168,45256.000,20.000,0,0,0.000,14.375,0.186,9.634,-0.073,0.117,0.125,0.409,-0.132,9.625,10.000,64.000,120.000,-57.296,202.760,0,0,0,0,0,4,0,0
585,4,45273.152,45276.000,20.000,0,0,0.000,14.524,0.235,9.628,-0.078,0.103,0.197,0.352,-0.283,9.618,13.000,63.000,120.000,-57.296,202.909,0,0,0,0,0,4,0,0
586,4,45293.176,45296.000,20.000,0,0,0.000,14.791,0.290,9.631,-0.106,0.077,0.259,0.383,-0.144,9.622,11.000,64.000,120.000,-57.296,203.176,0,0,0,0,0,4,0,0
587,4,45313.148,45316.000,20.000,0,0,0.000,15.122,0.342,9.717,-0.129,0.082,0.307,0.335,-0.024,9.711,10.000,64.000,120.000,-57.296,203.507,0,0,0,0,0,4,0,0
588,4,45333.168,45336.000,20.000,0,0,0.000,15.486,0.364,9.616,-0.163,0.064,0.319,0.079,-0.323,9.610,10.000,62.000,120.000,-57.296,203.871,0,0,0,0,0,4,0,0
589,4,45353.176,45356.000,20.000,0,0,0.000,15.850,0.347,9.566,-0.153,0.025,0.311,-0.002,-0.160,9.565,13.000,62.000,120.000,-57.296,204.235,0,0,0,0,0,4,0,0
590,4,45373.160,45376.000,20.000,0,0,0.000,16.186,0.318,9.552,-0.152,0.002,0.279,0.060,-0.338,9.546,9.000,62.000,120.000,-57.296,204.571,0,0,0,0,0,4,0,0
591,4,45393.152,45396.000,20.000,0,0,0.000,16.480,0.302,9.733,-0.182,-0.002,0.241,0.093,-0.034,9.732,12.000,61.000,120.000,-57.296,204.865,0,0,0,0,0,4,0,0
592,4,45413.168,45416.000,20.000,0,0,0.000,16.725,0.289,9.701,-0.216,0.020,0.192,0.175,-0.136,9.699,13.000,59.000,120.000,-57.296,205.110,0,0,0,0,0,4,0,0
593,4,45433.176,45436.000,20.000,0,0,0.000,16.922,0.305,9.779,-0.264,0.023,0.151,0.189,-0.182,9.776,12.000,62.000,120.000,-57.296,205.307,0,0,0,0,0,4,0,0
594,4,45453.160,45456.000,20.000,0,0,0.000,16.965,0.338,9.755,-0.309,0.042,0.131,0.283,-0.280,9.747,11.000,58.000,120.000,-57.296,205.350,0,0,0,0,0,4,0,0
595,4,45473.160,45477.000,21.000,0,0,0.000,16.965,0.365,9.586,-0.344,0.056,0.111,0.132,-0.541,9.570,9.000,59.000,120.000,-57.296,205.350,0,0,0,0,0,4,0,0
596,4,45493.152,45497.000,20.000,0,0,0.000,16.965,0.360,9.609,-0.343,0.045,0.102,0.124,-0.579,9.591,11.000,61.000,120.000,-57.296,205.350,0,0,0,0,0,4,0,0
597,4,45513.152,45517.000,20.000,0,0,0.000,16.965,0.336,9.492,-0.321,0.035,0.091,0.192,-0.869,9.450,8.000,61.000,48.000,166.390,204.571,0,0,0,0,0,4,0,0
598,4,45533.160,45537.000,20.000,0,0,0.000,16.965,0.295,9.485,-0.277,0.036,0.095,0.115,-1.075,9.424,11.000,61.000,120.000,-57.296,204.571,0,0,0,0,0,4,0,0
599,4,45553.156,45556.000,19.000,0,0,0.000,16.965,0.223,9.357,-0.196,0.003,0.107,0.048,-1.302,9.266,13.000,60.000,120.000,-57.296,204.571,0,0,0,0,0,4,0,0
600,4,45568.137,45575.000,19.000,0,0,0.000,16.965,0.173,9.374,-0.119,-0.033,0.120,-0.105,-1.463,9.258,10.000,62.000,120.000,-57.296,204.571,0,0,0,0,0,4,0,0
601,4,45593.156,45596.000,21.000,0,0,0.000,16.965,0.159,9.669,-0.044,-0.055,0.143,0.409,-0.931,9.615,10.000,59.000,120.000,-57.296,204.571,0,0,0,0,0,4,0,0
602,4,45613.176,45616.000,20.000,0,0,0.000,17.103,0.182,9.787,-0.064,0.016,0.169,0.781,-0.771,9.725,14.000,60.000,74.000,-167.115,204.473,0,0,0,0,0,4,0,0
603,4,45633.168,45636.000,20.000,0,0,0.000,17.328,0.248,9.659,-0.070,0.095,0.218,0.613,-1.034,9.584,11.000,61.000,120.000,-57.296,204.698,0,0,0,0,0,4,0,0
604,4,45653.176,45656.000,20.000,0,0,0.000,17.624,0.312,9.519,-0.038,0.115,0.287,0.433,-1.221,9.431,12.000,61.000,120.000,-57.296,204.993,0,0,0,0,0,4,0,0
605,4,45673.160,45676.000,20.000,0,0,0.000,17.982,0.355,9.582,0.006,0.126,0.332,0.311,-1.030,9.522,12.000,61.000,61.000,-180.000,204.845,0,0,0,0,0,4,0,0
606,4,45693.148,45696.000,20.000,0,0,0.000,18.384,0.381,9.690,0.003,0.133,0.357,0.242,-0.833,9.651,11.000,60.000,120.000,-57.296,205.246,0,0,0,0,0,4,0,0
607,4,45713.145,45716.000,20.000,0,0,0.000,18.792,0.378,9.570,-0.003,0.133,0.353,-0.024,-1.003,9.517,11.000,59.000,120.000,-57.296,205.654,0,0,0,0,0,4,0,0
608,4,45733.148,45736.000,20.000,0,0,0.000,19.182,0.332,9.584,0.013,0.077,0.323,-0.364,-0.836,9.541,11.000,60.000,43.000,160.023,205.124,0,0,0,0,0,4,0,0
609,4,45753.148,45756.000,20.000,0,0,0.000,19.513,0.261,9.712,-0.007,0.045,0.257,-0.110,-0.687,9.687,13.000,61.000,120.000,-57.296,205.455,0,0,0,0,0,4,0,0
610,4,45773.160,45776.000,20.000,0,0,0.000,19.764,0.213,9.810,-0.064,0.075,0.188,0.081,-0.589,9.792,10.000,58.000,64.000,-174.182,205.308,0,0,0,0,0,4,0,0
611,4,45793.168,45796.000,20.000,0,0,0.000,19.857,0.173,9.581,-0.079,0.086,0.128,-0.239,-0.917,9.534,11.000,59.000,120.000,-57.296,205.401,0,0,0,0,0,4,0,0
612,4,45813.160,45816.000,20.000,0,0,0.000,19.857,0.102,9.391,-0.014,0.020,0.099,-0.326,-1.384,9.282,9.000,60.000,59.000,179.018,204.873,0,0,0,0,0,4,0,0
613,4,45833.156,45836.000,20.000,0,0,0.000,19.857,0.092,9.567,0.034,-0.030,0.080,-0.103,-1.044,9.510,10.000,59.000,56.000,176.869,204.313,0,0,0,0,0,4,0,0
614,4,45853.164,45856.000,20.000,0,0,0.000,19.857,0.075,9.638,0.045,0.005,0.060,0.215,-0.898,9.594,12.000,58.000,120.000,-57.296,204.313,0,0,0,0,0,4,0,0
615,4,45873.152,45876.000,20.000,0,0,0.000,19.857,0.073,9.585,0.046,0.033,0.046,0.134,-1.027,9.529,10.000,58.000,120.000,-57.296,204.313,0,0,0,0,0,4,0,0
616,4,45893.176,45896.000,20.000,0,0,0.000,19.857,0.102,9.488,0.086,0.001,0.054,-0.194,-1.262,9.402,11.000,60.000,58.000,177.933,203.785,0,0,0,0,0,4,0,0
617,4,45913.164,45916.000,20.000,0,0,0.000,19.857,0.150,9.539,0.140,-0.036,0.039,-0.199,-1.027,9.481,13.000,58.000,66.000,-171.952,203.471,0,0,0,0,0,4,0,0
618,4,45933.168,45936.000,20.000,0,0,0.000,19.857,0.151,9.566,0.136,-0.065,-0.006,-0.158,-0.826,9.529,12.000,59.000,120.000,-57.296,203.471,0,0,0,0,0,4,0,0
619,4,45953.160,45956.000,20.000,0,0,0.000,19.857,0.171,9.618,0.133,-0.078,-0.073,-0.170,-0.699,9.591,11.000,59.000,120.000,-57.296,203.471,0,0,0,0,0,4,0,0
620,4,45973.168,45976.000,20.000,0,0,0.000,19.812,0.200,9.753,0.110,-0.062,-0.155,0.034,-0.666,9.730,10.000,59.000,56.000,176.869,202.895,0,0,0,0,0,4,0,0
621,4,45993.164,45996.000,20.000,0,0,0.000,19.589,0.247,9.758,0.094,-0.049,-0.223,-0.002,-0.678,9.735,12.000,60.000,33.000,145.872,201.535,0,0,0,0,0,4,0,0
622,4,46013.176,46016.000,20.000,0,0,0.000,19.297,0.282,9.801,0.061,-0.027,-0.274,0.127,-0.589,9.783,11.000,59.000,120.000,-57.296,201.244,0,0,0,0,0,4,0,0
623,4,46033.168,46036.000,20.000,0,0,0.000,18.983,0.272,9.694,0.047,-0.023,-0.267,0.340,-0.723,9.661,11.000,60.000,120.000,-57.296,200.930,0,0,0,0,0,4,0,0
624,4,46053.148,46056.000,20.000,0,0,0.000,18.705,0.216,9.650,0.027,-0.009,-0.214,0.237,-0.840,9.610,12.000,59.000,120.000,-57.296,200.652,0,0,0,0,0,4,0,0
625,4,46073.176,46076.000,20.000,0,0,0.000,18.552,0.129,9.616,0.032,-0.013,-0.124,0.350,-0.955,9.562,10.000,62.000,45.000,161.302,199.715,0,0,0,0,0,4,0,0
626,4,46093.164,46096.000,20.000,0,0,0.000,18.552,0.074,9.591,0.053,-0.044,-0.028,0.285,-0.958,9.538,11.000,60.000,120.000,-57.296,199.715,0,0,0,0,0,4,0,0
627,4,46113.152,46116.000,20.000,0,0,0.000,18.552,0.076,9.679,0.049,-0.028,0.051,0.498,-0.694,9.641,11.000,59.000,59.000,-180.000,199.321,0,0,0,0,0,4,0,0
628,4,46133.156,46136.000,20.000,0,0,0.000,18.552,0.119,9.706,0.030,-0.003,0.115,0.438,-0.773,9.665,11.000,60.000,120.000,-57.296,199.321,0,0,0,0,0,4,0,0
629,4,46153.168,46156.000,20.000,0,0,0.000,18.643,0.170,9.576,0.033,0.019,0.166,0.342,-0.860,9.531,11.000,60.000,120.000,-57.296,199.412,0,0,0,0,0,4,0,0
630,4,46173.160,46176.000,20.000,0,0,0.000,18.861,0.212,9.587,0.047,0.021,0.206,0.211,-0.862,9.546,11.000,61.000,120.000,-57.296,199.629,0,0,0,0,0,4,0,0
631,4,46193.176,46196.000,20.000,0,0,0.000,19.105,0.227,9.601,0.062,0.001,0.218,0.062,-0.807,9.567,9.000,60.000,120.000,-57.296,199.874,0,0,0,0,0,4,0,0
632,4,46213.164,46216.000,20.000,0,0,0.000,19.348,0.211,9.680,0.045,-0.025,0.204,-0.026,-0.570,9.663,11.000,59.000,82.000,-161.491,200.084,0,0,0,0,0,4,0,0
633,4,46233.148,46237.000,21.000,0,0,0.000,19.558,0.166,9.708,0.009,-0.029,0.163,0.098,-0.455,9.697,12.000,60.000,120.000,-57.296,200.295,0,0,0,0,0,4,0,0
634,4,46253.176,46256.000,19.000,0,0,0.000,19.602,0.088,9.667,-0.013,-0.015,0.085,0.081,-0.543,9.651,9.000,59.000,18.000,129.721,198.926,0,0,0,0,0,4,0,0
635,4,46273.164,46276.000,20.000,0,0,0.000,19.602,0.022,9.507,0.011,-0.012,0.015,0.050,-0.974,9.457,10.000,59.000,9.000,118.998,197.327,0,0,0,0,0,4,0,0
636,4,46293.148,46296.000,20.000,0,0,0.000,19.602,0.075,9.539,0.060,-0.016,-0.042,0.086,-0.881,9.498,13.000,59.000,9.000,115.872,195.698,0,0,0,0,0,4,0,0
637,4,46313.156,46316.000,20.000,0,0,0.000,19.602,0.124,9.644,0.065,0.010,-0.105,0.220,-0.577,9.625,11.000,60.000,9.000,118.016,194.144,0,0,0,0,0,4,0,0
638,4,46328.137,46335.000,19.000,0,0,0.000,19.602,0.161,9.677,0.053,0.039,-0.147,0.254,-0.587,9.656,12.000,60.000,9.000,116.996,194.144,0,0,0,0,0,4,0,0
639,4,46353.168,46356.000,21.000,0,0,0.000,19.340,0.216,9.498,0.075,0.048,-0.197,0.108,-0.819,9.462,9.000,58.000,7.000,118.016,190.855,0,0,0,0,0,4,0,0
640,4,46373.176,46376.000,20.000,0,0,0.000,19.096,0.251,9.975,0.116,0.019,-0.221,0.922,-0.357,9.926,11.000,59.000,5.000,114.182,189.082,0,0,0,0,0,4,0,0
641,4,46393.164,46396.000,20.000,0,0,0.000,18.988,0.125,9.848,0.089,0.009,-0.087,0.766,-0.362,9.811,10.000,61.000,4.000,114.504,187.484,0,0,0,0,0,4,0,0
642,4,46413.156,46416.000,20.000,0,0,0.000,18.988,0.078,9.691,0.065,0.030,0.032,0.385,-0.728,9.656,7.000,60.000,3.000,116.396,186.062,0,0,0,0,0,4,0,0
643,4,46433.156,46436.000,20.000,0,0,0.000,18.988,0.147,9.504,0.066,0.019,0.130,0.407,-0.977,9.445,10.000,57.000,3.000,113.155,184.604,0,0,0,0,0,4,0,0
644,4,46453.148,46456.000,20.000,0,0,0.000,19.128,0.179,9.579,0.076,0.026,0.160,0.201,-0.601,9.558,10.000,61.000,3.000,113.653,183.322,0,0,0,0,0,4,0,0
645,4,46473.152,46476.000,20.000,0,0,0.000,19.219,0.166,9.628,0.089,0.068,0.122,0.201,-0.656,9.603,12.000,58.000,4.000,112.111,181.988,0,0,0,0,0,4,0,0
646,4,46493.160,46496.000,20.000,0,0,0.000,19.219,0.140,9.631,0.094,0.081,0.066,0.170,-0.608,9.610,10.000,60.000,5.000,115.285,180.654,0,0,0,0,0,4,0,0
647,4,46513.168,46516.000,20.000,0,0,0.000,19.219,0.146,9.681,0.094,0.110,0.019,0.103,-0.453,9.670,11.000,59.000,7.000,116.037,179.361,0,0,0,0,0,4,0,0
648,4,46533.152,46536.000,20.000,0,0,0.000,19.219,0.143,9.589,0.092,0.108,0.017,0.175,-0.589,9.570,9.000,58.000,8.000,118.998,178.154,0,0,0,0,0,4,0,0
649,4,46553.160,46556.000,20.000,0,0,0.000,19.219,0.122,9.653,0.080,0.071,0.060,0.038,-0.553,9.637,9.000,59.000,6.000,117.112,176.933,0,0,0,0,0,4,0,0
650,4,46573.164,46576.000,20.000,0,0,0.000,19.219,0.126,9.623,0.077,0.042,0.091,0.005,-0.397,9.615,10.000,59.000,5.000,115.194,175.698,0,0,0,0,0,4,0,0
651,4,46593.148,46596.000,20.000,0,0,0.000,19.219,0.114,9.701,0.060,0.018,0.096,0.134,-0.496,9.687,11.000,59.000,4.000,113.286,174.450,0,0,0,0,0,4,0,0
652,4,46613.176,46616.000,20.000,0,0,0.000,19.219,0.114,9.620,0.046,0.019,0.102,0.034,-0.419,9.610,12.000,58.000,4.000,112.111,173.203,0,0,0,0,0,4,0,0
653,4,46633.148,46636.000,20.000,0,0,0.000,19.219,0.079,9.609,0.042,0.028,0.061,0.026,-0.508,9.596,13.000,56.000,5.000,111.615,171.972,0,0,0,0,0,4,0,0
654,4,46653.168,46656.000,20.000,0,0,0.000,19.219,0.054,9.619,0.039,0.011,0.035,0.110,-0.536,9.603,10.000,60.000,4.000,114.401,170.820,0,0,0,0,0,4,0,0
655,4,46673.160,46676.000,20.000,0,0,0.000,19.219,0.101,9.572,0.050,0.005,0.087,0.251,-0.548,9.553,11.000,59.000,4.000,113.286,169.669,0,0,0,0,0,4,0,0
656,4,46693.168,46696.000,20.000,0,0,0.000,19.321,0.201,9.610,0.046,-0.001,0.196,0.405,-0.646,9.579,11.000,58.000,5.000,114.067,168.657,0,0,0,0,0,4,0,0
657,4,46713.168,46716.000,20.000,0,0,0.000,19.601,0.284,9.673,0.042,0.017,0.280,0.402,-0.548,9.649,11.000,61.000,8.000,117.112,167.900,0,0,0,0,0,4,0,0
658,4,46733.176,46736.000,20.000,0,0,0.000,19.947,0.316,9.665,0.044,0.090,0.300,0.381,-0.469,9.646,11.000,59.000,7.000,116.037,167.202,0,0,0,0,0,4,0,0
659,4,46753.168,46756.000,20.000,0,0,0.000,20.088,0.176,9.667,0.061,0.166,0.002,-0.776,-0.163,9.634,10.000,60.000,8.000,118.055,166.358,0,0,0,0,0,4,0,0
660,4,46773.148,46776.000,20.000,0,0,0.000,19.815,0.487,9.572,0.082,0.207,-0.433,-0.819,-0.237,9.534,9.000,57.000,8.000,118.977,165.143,0,0,0,0,0,4,0,0
661,4,46793.176,46796.000,20.000,0,0,0.000,19.218,0.577,9.595,0.090,0.207,-0.531,0.218,-0.620,9.572,11.000,58.000,8.000,116.934,163.593,0,0,0,0,0,4,0,0
662,4,46813.164,46816.000,20.000,0,0,0.000,18.713,0.405,9.661,0.098,0.177,-0.351,0.421,-0.589,9.634,11.000,57.000,8.000,116.869,162.164,0,0,0,0,0,4,0,0
663,4,46833.148,46836.000,20.000,0,0,0.000,18.494,0.199,9.630,0.095,0.133,-0.115,0.318,-0.572,9.608,11.000,60.000,8.000,117.055,161.047,0,0,0,0,0,4,0,0
664,4,46853.156,46857.000,21.000,0,0,0.000,18.494,0.159,9.675,0.098,0.113,0.055,0.084,-0.464,9.663,11.000,59.000,7.000,116.037,160.147,0,0,0,0,0,4,0,0
665,4,46873.152,46877.000,20.000,0,0,0.000,18.542,0.196,9.638,0.086,0.056,0.167,0.259,-0.493,9.622,11.000,60.000,7.000,116.114,159.313,0,0,0,0,0,4,0,0
666,4,46893.164,46896.000,19.000,0,0,0.000,18.773,0.243,9.665,0.065,0.055,0.228,-0.354,-0.110,9.658,9.000,59.000,7.000,118.055,158.715,0,0,0,0,0,4,0,0
667,4,46908.137,46915.000,19.000,0,0,0.000,18.975,0.254,9.645,0.038,0.057,0.245,0.043,-0.407,9.637,11.000,60.000,7.000,116.114,158.917,0,0,0,0,0,4,0,0
668,4,46933.168,46936.000,21.000,0,0,0.000,19.413,0.328,9.694,0.040,0.058,0.320,-0.081,-0.208,9.692,8.000,60.000,6.000,118.128,157.690,0,0,0,0,0,4,0,0
669,4,46953.164,46956.000,20.000,0,0,0.000,19.696,0.199,9.721,0.022,0.104,0.168,-0.541,0.043,9.706,10.000,60.000,6.000,116.189,157.137,0,0,0,0,0,4,0,0
670,4,46973.156,46976.000,20.000,0,0,0.000,19.696,0.111,9.647,0.019,0.103,0.037,-0.249,-0.381,9.637,8.000,59.000,6.000,118.092,156.356,0,0,0,0,0,4,0,0
671,4,46993.164,46996.000,20.000,0,0,0.000,19.696,0.087,9.674,0.019,0.083,0.018,-0.362,-0.292,9.663,10.000,57.000,6.000,115.956,155.548,0,0,0,0,0,4,0,0
672,4,47013.148,47016.000,20.000,0,0,0.000,19.696,0.057,9.716,0.004,0.055,-0.016,-0.314,-0.201,9.708,10.000,59.000,7.000,117.055,154.778,0,0,0,0,0,4,0,0
673,4,47033.156,47037.000,21.000,0,0,0.000,19.696,0.073,9.726,-0.022,0.055,0.043,0.007,-0.110,9.725,10.000,59.000,7.000,117.055,154.023,0,0,0,0,0,4,0,0
674,4,47053.172,47056.000,19.000,0,0,0.000,19.696,0.088,9.582,-0.064,0.040,0.046,-0.357,-0.261,9.572,11.000,59.000,6.000,115.099,153.245,0,0,0,0,0,4,0,0
675,4,47073.168,47077.000,21.000,0,0,0.000,19.696,0.055,9.538,-0.040,-0.007,0.036,-0.335,-0.496,9.519,9.000,56.000,6.000,116.934,152.519,0,0,0,0,0,4,0,0
676,4,47093.176,47096.000,19.000,0,0,0.000,19.696,0.093,9.612,-0.016,-0.026,0.087,-0.141,-0.436,9.601,11.000,58.000,7.000,115.956,151.788,0,0,0,0,0,4,0,0
677,4,47113.164,47116.000,20.000,0,0,0.000,19.696,0.114,9.653,-0.023,-0.014,0.111,0.172,-0.330,9.646,11.000,59.000,7.000,116.037,151.072,0,0,0,0,0,4,0,0
678,4,47133.148,47136.000,20.000,0,0,0.000,19.696,0.149,9.587,-0.039,0.006,0.144,-0.220,-0.326,9.579,9.000,58.000,7.000,118.016,150.411,0,0,0,0,0,4,0,0
679,4,47153.156,47156.000,20.000,0,0,0.000,19.696,0.113,9.548,-0.027,-0.000,0.110,-0.120,-0.548,9.531,11.000,58.000,7.000,115.956,149.722,0,0,0,0,0,4,0,0
680,4,47173.152,47176.000,20.000,0,0,0.000,19.696,0.130,9.629,0.009,-0.006,0.130,-0.340,-0.388,9.615,11.000,59.000,6.000,115.099,149.030,0,0,0,0,0,4,0,0
681,4,47193.148,47196.000,20.000,0,0,0.000,19.696,0.091,9.681,0.000,0.002,0.091,0.034,-0.352,9.675,12.000,60.000,6.000,114.182,148.333,0,0,0,0,0,4,0,0
682,4,47213.148,47217.000,21.000,0,0,0.000,19.696,0.147,9.648,-0.014,0.038,0.142,0.019,-0.464,9.637,9.000,57.000,6.000,116.996,147.706,0,0,0,0,0,4,0,0
683,4,47233.168,47236.000,19.000,0,0,0.000,19.696,0.094,9.548,-0.002,0.044,0.083,-0.448,-0.405,9.529,10.000,59.000,6.000,116.114,147.074,0,0,0,0,0,4,0,0
684,4,47253.148,47256.000,20.000,0,0,0.000,19.696,0.056,9.586,0.034,0.044,0.003,-0.328,-0.493,9.567,12.000,58.000,6.000,113.947,146.412,0,0,0,0,0,4,0,0
685,4,47273.156,47276.000,20.000,0,0,0.000,19.696,0.088,9.572,0.059,0.043,0.049,0.103,-0.508,9.558,10.000,58.000,6.000,116.037,145.804,0,0,0,0,0,4,0,0
686,4,47293.164,47296.000,20.000,0,0,0.000,19.696,0.144,9.569,0.042,0.028,0.135,-0.136,-0.453,9.558,10.000,59.000,6.000,116.114,145.210,0,0,0,0,0,4,0,0
687,4,47313.148,47316.000,20.000,0,0,0.000,19.696,0.135,9.596,0.086,0.071,0.076,-0.675,-0.026,9.572,11.000,59.000,6.000,115.099,144.608,0,0,0,0,0,4,0,0
688,4,47333.156,47336.000,20.000,0,0,0.000,19.696,0.142,9.386,0.070,0.043,0.115,0.168,-0.754,9.354,10.000,57.000,6.000,115.956,144.035,0,0,0,0,0,4,0,0
689,4,47348.137,47355.000,19.000,0,0,0.000,19.965,0.499,9.236,0.078,-0.122,0.478,-0.393,-1.051,9.167,8.000,59.000,5.000,117.167,144.305,0,0,0,0,0,4,0,0
690,4,47373.168,47376.000,21.000,0,0,0.000,21.253,0.989,10.329,0.148,-0.046,0.977,-0.287,1.245,10.250,10.000,59.000,4.000,114.294,144.430,0,0,0,0,0,4,0,0
691,4,47393.156,47396.000,20.000,0,0,0.000,22.061,0.427,9.628,0.062,0.113,0.408,-0.840,0.029,9.591,9.000,59.000,3.000,114.401,144.621,0,0,0,0,0,4,0,0
692,4,47413.168,47416.000,20.000,0,0,0.000,22.095,0.240,9.821,-0.024,0.170,-0.167,-1.003,0.354,9.764,11.000,58.000,3.000,112.264,144.007,0,0,0,0,0,4,0,0
693,4,47433.164,47436.000,20.000,0,0,0.000,21.999,0.120,9.461,0.065,0.101,-0.006,-0.196,-0.819,9.424,10.000,57.000,3.000,113.155,143.297,0,0,0,0,0,4,0,0
694,4,47453.156,47456.000,20.000,0,0,0.000,21.999,0.100,9.561,0.089,-0.017,-0.042,-1.015,-0.290,9.503,8.000,58.000,4.000,116.189,142.755,0,0,0,0,0,4,0,0
695,4,47473.168,47476.000,20.000,0,0,0.000,21.887,0.219,9.856,0.045,-0.019,-0.214,-0.223,0.163,9.852,8.000,58.000,4.000,116.189,142.113,0,0,0,0,0,4,0,0
696,4,47488.137,47493.000,17.000,0,0,0.000,21.685,0.245,9.817,0.027,0.026,-0.243,-0.007,-0.101,9.816,8.000,58.000,4.000,116.189,141.911,0,0,0,0,0,4,0,0
697,4,47513.164,47516.000,23.000,0,0,0.000,21.291,0.309,9.520,0.026,0.014,-0.307,-0.481,-0.567,9.491,12.000,60.000,4.000,112.411,140.453,0,0,0,0,0,4,0,0
698,4,47528.137,47535.000,19.000,0,0,0.000,21.006,0.346,9.565,0.048,-0.006,-0.343,-0.508,-0.247,9.548,10.000,59.000,4.000,114.294,140.168,0,0,0,0,0,4,0,0
699,4,47553.148,47556.000,21.000,0,0,0.000,20.504,0.352,9.496,0.106,-0.074,-0.328,-0.223,-0.575,9.476,10.000,58.000,5.000,115.099,138.669,0,0,0,0,0,4,0,0
700,4,47573.156,47577.000,21.000,0,0,0.000,20.191,0.277,9.474,0.137,-0.126,-0.205,-0.005,-0.433,9.464,8.000,57.000,6.000,118.016,137.950,0,0,0,0,0,4,0,0
701,4,47593.152,47596.000,19.000,0,0,0.000,20.141,0.198,9.639,0.147,-0.121,0.055,0.895,-0.584,9.579,10.000,59.000,6.000,116.114,137.464,0,0,0,0,0,4,0,0
702,4,47613.164,47616.000,20.000,0,0,0.000,20.238,0.220,9.814,0.119,-0.077,0.168,-0.103,0.048,9.814,9.000,57.000,5.000,116.037,137.130,0,0,0,0,0,4,0,0
703,4,47628.137,47633.000,17.000,0,0,0.000,20.327,0.177,9.757,0.110,-0.051,0.129,0.012,-0.122,9.756,9.000,57.000,5.000,116.037,137.220,0,0,0,0,0,4,0,0
704,4,47653.164,47656.000,23.000,0,0,0.000,20.327,0.113,9.571,0.111,-0.023,-0.002,-0.194,-0.163,9.567,9.000,57.000,6.000,116.996,136.380,0,0,0,0,0,4,0,0
705,4,47673.176,47676.000,20.000,0,0,0.000,20.327,0.181,9.572,0.165,-0.031,-0.067,-0.309,-0.189,9.565,10.000,58.000,7.000,116.996,135.992,0,0,0,0,0,4,0,0
706,4,47693.176,47696.000,20.000,0,0,0.000,20.327,0.207,9.486,0.192,-0.044,-0.064,-0.022,-0.371,9.479,10.000,59.000,11.000,121.023,135.693,0,0,0,0,0,4,0,0
707,4,47713.164,47716.000,20.000,0,0,0.000,20.327,0.224,9.524,0.214,-0.065,-0.017,-0.115,-0.165,9.522,10.000,58.000,61.000,-176.995,136.639,0,0,0,0,0,4,0,0
708,4,47733.148,47736.000,20.000,0,0,0.000,20.327,0.245,9.592,0.235,-0.063,0.026,0.086,-0.098,9.591,10.000,59.000,120.000,-57.296,136.639,0,0,0,0,0,4,0,0
709,4,47753.152,47756.000,20.000,0,0,0.000,20.327,0.247,9.584,0.234,-0.066,0.044,0.010,0.026,9.584,8.000,58.000,120.000,-57.296,136.639,0,0,0,0,0,4,0,0
710,4,47773.156,47776.000,20.000,0,0,0.000,20.327,0.232,9.697,0.217,-0.076,0.031,-0.148,0.354,9.689,11.000,59.000,65.000,-174.182,137.622,0,0,0,0,0,4,0,0
711,4,47793.164,47796.000,20.000,0,0,0.000,20.327,0.209,9.658,0.194,-0.078,0.009,-0.045,0.192,9.656,12.000,59.000,120.000,-57.296,137.622,0,0,0,0,0,4,0,0
712,4,47813.156,47816.000,20.000,0,0,0.000,20.327,0.171,9.739,0.158,-0.061,-0.025,0.017,0.460,9.728,8.000,61.000,120.000,-57.296,137.622,0,0,0,0,0,4,0,0
713,4,47833.160,47836.000,20.000,0,0,0.000,20.327,0.133,9.807,0.118,-0.035,-0.051,0.072,0.429,9.797,12.000,58.000,120.000,-57.296,137.622,0,0,0,0,0,4,0,0
714,4,47853.148,47856.000,20.000,0,0,0.000,20.327,0.091,9.783,0.059,-0.014,-0.068,0.148,0.508,9.768,10.000,59.000,120.000,-57.296,137.622,0,0,0,0,0,4,0,0
715,4,47868.137,47873.000,17.000,0,0,0.000,20.327,0.083,9.744,0.027,0.018,-0.077,0.101,0.412,9.735,10.000,59.000,120.000,-57.296,137.622,0,0,0,0,0,4,0,0
716,4,47893.160,47896.000,23.000,0,0,0.000,20.327,0.076,9.629,-0.031,0.018,-0.067,0.113,0.266,9.625,10.000,60.000,120.000,-57.296,137.622,0,0,0,0,0,4,0,0
717,4,47913.148,47916.000,20.000,0,0,0.000,20.327,0.059,9.596,-0.050,0.012,-0.030,0.034,0.201,9.594,11.000,61.000,120.000,-57.296,137.622,0,0,0,0,0,4,0,0
718,4,47933.152,47936.000,20.000,0,0,0.000,20.327,0.054,9.549,-0.048,-0.011,0.021,0.079,0.077,9.548,8.000,59.000,120.000,-57.296,137.622,0,0,0,0,0,4,0,0
719,4,47953.168,47956.000,20.000,0,0,0.000,20.327,0.088,9.573,-0.045,-0.026,0.071,0.141,0.079,9.572,11.000,59.000,120.000,-57.296,137.622,0,0,0,0,0,4,0,0
720,4,47973.160,47976.000,20.000,0,0,0.000,20.327,0.123,9.606,-0.046,-0.015,0.113,0.177,0.153,9.603,10.000,60.000,120.000,-57.296,137.622,0,0,0,0,0,4,0,0
721,4,47993.176,47996.000,20.000,0,0,0.000,20.327,0.149,9.591,-0.057,0.004,0.137,0.194,0.110,9.589,9.000,60.000,120.000,-57.296,137.622,0,0,0,0,0,4,0,0
722,4,48013.160,48016.000,20.000,0,0,0.000,20.371,0.166,9.613,-0.066,0.010,0.152,0.072,0.223,9.610,9.000,61.000,120.000,-57.296,137.666,0,0,0,0,0,4,0,0
723,4,48033.148,48036.000,20.000,0,0,0.000,20.504,0.172,9.655,-0.084,0.027,0.148,0.165,0.232,9.651,10.000,59.000,120.000,-57.296,137.799,0,0,0,0,0,4,0,0
724,4,48053.176,48056.000,20.000,0,0,0.000,20.547,0.182,9.656,-0.100,0.049,0.144,0.098,0.175,9.653,10.000,59.000,120.000,-57.296,137.842,0,0,0,0,0,4,0,0
725,4,48073.148,48076.000,20.000,0,0,0.000,20.547,0.172,9.482,-0.093,0.068,0.128,0.146,-0.002,9.481,9.000,59.000,120.000,-57.296,137.842,0,0,0,0,0,4,0,0
726,4,48093.168,48096.000,20.000,0,0,0.000,20.547,0.151,9.530,-0.092,0.065,0.101,0.019,-0.110,9.529,8.000,59.000,120.000,-57.296,137.842,0,0,0,0,0,4,0,0
727,4,48113.160,48116.000,20.000,0,0,0.000,20.547,0.118,9.568,-0.077,0.080,0.043,-0.081,0.050,9.567,9.000,58.000,120.000,-57.296,137.842,0,0,0,0,0,4,0,0
728,4,48133.168,48136.000,20.000,0,0,0.000,20.547,0.117,9.623,-0.067,0.094,-0.019,-0.105,0.000,9.622,10.000,58.000,120.000,-57.296,137.842,0,0,0,0,0,4,0,0
729,4,48153.160,48156.000,20.000,0,0,0.000,20.547,0.145,9.625,-0.055,0.102,-0.087,-0.201,0.050,9.622,11.000,59.000,120.000,-57.296,137.842,0,0,0,0,0,4,0,0
730,4,48173.156,48176.000,20.000,0,0,0.000,20.547,0.169,9.577,-0.053,0.100,-0.125,-0.062,0.081,9.577,12.000,59.000,120.000,-57.296,137.842,0,0,0,0,0,4,0,0
731,4,48193.168,48196.000,20.000,0,0,0.000,20.547,0.173,9.558,-0.067,0.094,-0.129,-0.079,0.022,9.558,10.000,58.000,120.000,-57.296,137.842,0,0,0,0,0,4,0,0
732,4,48213.148,48216.000,20.000,0,0,0.000,20.547,0.131,9.606,-0.060,0.076,-0.088,0.031,-0.129,9.606,10.000,58.000,120.000,-57.296,137.842,0,0,0,0,0,4,0,0
733,4,48233.176,48236.000,20.000,0,0,0.000,20.547,0.096,9.566,-0.053,0.062,-0.049,0.000,-0.165,9.565,11.000,59.000,120.000,-57.296,137.842,0,0,0,0,0,4,0,0
734,4,48253.160,48256.000,20.000,0,0,0.000,20.547,0.067,9.465,-0.027,0.061,-0.005,-0.057,-0.328,9.459,11.000,57.000,120.000,-57.296,137.842,0,0,0,0,0,4,0,0
735,4,48273.148,48276.000,20.000,0,0,0.000,20.547,0.070,9.442,0.023,0.062,-0.020,-0.292,-0.192,9.436,8.000,59.000,87.000,-159.542,139.094,0,0,0,0,0,4,0,0
736,4,48293.156,48296.000,20.000,0,0,0.000,20.547,0.144,9.539,0.070,0.040,-0.119,-0.359,-0.156,9.531,9.000,57.000,68.000,-169.904,140.114,0,0,0,0,0,4,0,0
737,4,48313.168,48316.000,20.000,0,0,0.000,20.404,0.203,9.553,0.089,0.019,-0.181,-0.383,-0.043,9.546,12.000,58.000,120.000,-57.296,139.971,0,0,0,0,0,4,0,0
738,4,48333.160,48336.000,20.000,0,0,0.000,20.183,0.216,9.645,0.098,0.001,-0.193,-0.163,-0.045,9.644,9.000,58.000,120.000,-57.296,139.751,0,0,0,0,0,4,0,0
739,4,48353.176,48356.000,20.000,0,0,0.000,19.968,0.208,9.553,0.104,-0.013,-0.180,-0.077,-0.050,9.553,12.000,58.000,67.000,-171.226,140.520,0,0,0,0,0,4,0,0
740,4,48373.164,48376.000,20.000,0,0,0.000,19.819,0.189,9.594,0.115,-0.028,-0.148,-0.084,-0.045,9.594,9.000,60.000,120.000,-57.296,140.371,0,0,0,0,0,4,0,0
741,4,48393.168,48396.000,20.000,0,0,0.000,19.819,0.144,9.592,0.126,-0.031,-0.064,0.148,-0.057,9.591,10.000,60.000,120.000,-57.296,140.371,0,0,0,0,0,4,0,0
742,4,48413.176,48416.000,20.000,0,0,0.000,19.819,0.130,9.610,0.119,-0.042,0.032,0.206,0.036,9.608,7.000,60.000,120.000,-57.296,140.371,0,0,0,0,0,4,0,0
743,4,48433.160,48436.000,20.000,0,0,0.000,19.819,0.149,9.613,0.117,-0.024,0.090,0.057,0.101,9.613,11.000,61.000,120.000,-57.296,140.371,0,0,0,0,0,4,0,0
744,4,48453.152,48456.000,20.000,0,0,0.000,19.819,0.149,9.614,0.119,-0.022,0.086,-0.079,0.110,9.613,14.000,60.000,120.000,-57.296,140.371,0,0,0,0,0,4,0,0
745,4,48473.160,48476.000,20.000,0,0,0.000,19.819,0.138,9.614,0.122,-0.024,0.059,-0.201,0.175,9.610,11.000,59.000,120.000,-57.296,140.371,0,0,0,0,0,4,0,0
746,4,48493.176,48496.000,20.000,0,0,0.000,19.819,0.107,9.667,0.102,-0.025,-0.022,-0.196,0.366,9.658,11.000,60.000,120.000,-57.296,140.371,0,0,0,0,0,4,0,0
747,4,48513.164,48516.000,20.000,0,0,0.000,19.819,0.104,9.687,0.087,-0.015,-0.054,0.067,0.299,9.682,11.000,60.000,120.000,-57.296,140.371,0,0,0,0,0,4,0,0
748,4,48533.156,48536.000,20.000,0,0,0.000,19.819,0.078,9.607,0.073,-0.007,0.026,0.263,0.062,9.603,9.000,61.000,120.000,-57.296,140.371,0,0,0,0,0,4,0,0
749,4,48553.160,48556.000,20.000,0,0,0.000,19.819,0.091,9.575,0.079,-0.000,0.045,-0.089,0.105,9.574,11.000,59.000,120.000,-57.296,140.371,0,0,0,0,0,4,0,0
750,4,48573.168,48576.000,20.000,0,0,0.000,19.819,0.111,9.544,0.107,-0.000,0.027,-0.026,0.079,9.543,11.000,59.000,120.000,-57.296,140.371,0,0,0,0,0,4,0,0
751,4,48593.156,48596.000,20.000,0,0,0.000,19.819,0.133,9.524,0.133,0.007,-0.007,-0.151,0.139,9.522,6.000,60.000,120.000,-57.296,140.371,0,0,0,0,0,4,0,0
752,4,48613.160,48616.000,20.000,0,0,0.000,19.819,0.099,9.636,0.097,-0.011,-0.017,0.251,0.091,9.632,12.000,60.000,120.000,-57.296,140.371,0,0,0,0,0,4,0,0
753,4,48633.168,48636.000,20.000,0,0,0.000,19.819,0.131,9.874,0.062,0.011,-0.115,-0.601,1.025,9.802,10.000,59.000,120.000,-57.296,140.371,0,0,0,0,0,4,0,0
754,4,48653.168,48656.000,20.000,0,0,0.000,19.612,0.296,9.737,0.005,0.032,-0.295,-0.230,0.479,9.723,9.000,60.000,120.000,-57.296,140.164,0,0,0,0,0,4,0,0
755,4,48673.168,48676.000,20.000,0,0,0.000,19.229,0.336,9.674,-0.034,0.023,-0.333,0.129,0.335,9.668,10.000,60.000,120.000,-57.296,139.781,0,0,0,0,0,4,0,0
756,4,48688.137,48693.000,17.000,0,0,0.000,18.987,0.250,9.616,-0.024,0.022,-0.248,0.441,-0.007,9.606,10.000,60.000,120.000,-57.296,139.539,0,0,0,0,0,4,0,0
757,4,48713.152,48716.000,23.000,0,0,0.000,18.841,0.158,9.631,-0.062,0.016,-0.145,-0.005,0.165,9.629,10.000,61.000,120.000,-57.296,139.393,0,0,0,0,0,4,0,0
758,4,48733.160,48736.000,20.000,0,0,0.000,18.656,0.279,9.709,-0.051,0.048,-0.270,-0.479,0.658,9.675,11.000,62.000,120.000,-57.296,139.208,0,0,0,0,0,4,0,0
759,4,48753.152,48756.000,20.000,0,0,0.000,18.217,0.449,9.568,-0.032,0.042,-0.446,-0.153,0.199,9.565,10.000,60.000,90.000,-158.213,140.030,0,0,0,0,0,4,0,0
760,4,48773.176,48776.000,20.000,0,0,0.000,17.714,0.430,9.660,-0.050,0.034,-0.426,-0.045,0.297,9.656,12.000,59.000,120.000,-57.296,139.526,0,0,0,0,0,4,0,0
761,4,48793.148,48796.000,20.000,0,0,0.000,17.224,0.436,9.718,-0.065,0.051,-0.428,0.012,0.359,9.711,13.000,61.000,120.000,-57.296,139.037,0,0,0,0,0,4,0,0
762,4,48813.152,48816.000,20.000,0,0,0.000,16.736,0.425,9.607,-0.089,0.047,-0.413,0.034,0.148,9.606,12.000,63.000,120.000,-57.296,138.549,0,0,0,0,0,4,0,0
763,4,48833.160,48836.000,20.000,0,0,0.000,16.301,0.359,9.642,-0.082,0.040,-0.347,-0.041,0.254,9.639,9.000,64.000,120.000,-57.296,138.114,0,0,0,0,0,4,0,0
764,4,48853.168,48856.000,20.000,0,0,0.000,15.976,0.222,9.515,-0.060,0.026,-0.213,0.479,-0.366,9.495,10.000,61.000,120.000,-57.296,137.789,0,0,0,0,0,4,0,0
765,4,48873.160,48876.000,20.000,0,0,0.000,15.927,0.060,9.638,-0.048,0.012,0.034,0.450,-0.065,9.627,11.000,65.000,120.000,-57.296,137.740,0,0,0,0,0,4,0,0
766,4,48893.176,48896.000,20.000,0,0,0.000,15.978,0.185,9.653,-0.041,0.039,0.176,0.302,0.053,9.649,10.000,65.000,120.000,-57.296,137.790,0,0,0,0,0,4,0,0
767,4,48913.168,48916.000,20.000,0,0,0.000,16.233,0.271,9.543,-0.040,0.045,0.264,0.175,-0.098,9.541,11.000,63.000,105.000,-153.515,139.415,0,0,0,0,0,4,0,0
768,4,48932.480,48938.000,22.000,0,0,0.000,16.612,0.373,9.503,-0.018,0.028,0.372,0.053,-0.239,9.500,11.000,63.000,120.000,-57.296,139.793,0,0,0,0,0,4,0,0
769,4,48950.215,48985.000,47.000,0,0,0.000,17.024,0.408,9.581,0.014,0.018,0.408,-0.141,0.146,9.579,10.000,63.000,120.000,-57.296,140.205,0,0,0,0,0,4,0,0
770,4,48950.215,49014.000,29.000,0,0,0.000,17.024,0.408,9.581,0.014,0.018,0.408,-0.141,0.146,9.579,13.000,62.000,120.000,-57.296,140.205,0,0,0,0,0,4,0,0
771,4,49022.461,49064.000,50.000,0,0,0.000,17.266,0.377,9.660,0.073,-0.041,0.367,-0.522,0.213,9.644,11.000,120.000,120.000,-57.296,140.447,0,0,0,0,0,4,0,0
772,4,49022.461,49077.000,13.000,0,0,0.000,17.266,0.377,9.660,0.073,-0.041,0.367,-0.522,0.213,9.644,10.000,59.000,120.000,-57.296,140.447,0,0,0,0,0,4,0,0
773,4,49104.781,49106.000,29.000,0,0,0.000,18.285,0.216,9.649,0.153,-0.051,0.144,-0.239,0.299,9.641,12.000,61.000,120.000,-57.296,141.466,0,0,0,0,0,4,0,0
774,4,49104.781,49106.000,0.000,0,0,0.000,18.285,0.216,9.649,0.153,-0.051,0.144,-0.239,0.299,9.641,12.000,61.000,120.000,-57.296,141.466,0,0,0,0,0,4,0,0
775,4,49104.781,49106.000,0.000,0,0,0.000,18.285,0.216,9.649,0.153,-0.051,0.144,-0.239,0.299,9.641,12.000,61.000,120.000,-57.296,141.466,0,0,0,0,0,4,0,0
